time,ax,ay,az,atotal
0.008871078491210938,0.03,-0.11,-0.01,0.11
0.020454883575439453,0.06,-0.15,0.31,0.34
0.02210092544555664,-0.03,-0.1,0.54,0.55
0.02625894546508789,-0.15,-0.03,0.53,0.55
0.03669905662536621,-0.2,-0.06,0.47,0.51
0.048915863037109375,-0.2,-0.16,0.38,0.45
0.05801105499267578,-0.17,-0.19,0.2,0.32
0.06603193283081055,-0.13,-0.17,-0.04,0.21
0.07653617858886719,0.0,-0.15,-0.23,0.27
0.08619213104248047,0.14,-0.13,-0.23,0.29
0.0979619026184082,0.18,-0.05,-0.14,0.23
0.10708189010620117,0.18,-0.04,-0.22,0.28
0.11597919464111328,0.09,-0.07,-0.34,0.35
0.1256551742553711,-0.04,-0.07,-0.33,0.33
0.13574790954589844,-0.18,-0.06,-0.24,0.3
0.14811396598815918,-0.23,-0.09,-0.08,0.25
0.1575920581817627,-0.21,-0.12,0.15,0.28
0.1660919189453125,-0.13,-0.17,0.36,0.41
0.1754310131072998,-0.03,-0.23,0.39,0.45
0.18544507026672363,0.07,-0.28,0.2,0.35
0.19764399528503418,0.11,-0.29,-0.07,0.31
0.20692706108093262,0.03,-0.21,-0.09,0.23
0.21538686752319336,-0.05,-0.12,0.01,0.13
0.22527217864990234,-0.05,-0.09,0.12,0.15
0.2351689338684082,0.0,-0.18,0.24,0.3
0.24884319305419922,0.02,-0.27,0.25,0.36
0.25838184356689453,0.0,-0.36,0.11,0.37
0.2652101516723633,-0.05,-0.44,-0.06,0.44
0.28020501136779785,-0.11,-0.5,-0.3,0.59
0.28504204750061035,-0.16,-0.65,-0.57,0.87
0.2983589172363281,-0.31,-0.62,-0.68,0.97
0.30794286727905273,-0.43,-0.46,-0.68,0.92
0.3147869110107422,-0.51,-0.36,-0.45,0.76
0.3249678611755371,-0.46,-0.4,0.21,0.64
0.3347358703613281,-0.41,-0.49,0.63,0.89
0.3480260372161865,-0.43,-0.59,0.61,0.95
0.358705997467041,-0.37,-0.67,0.52,0.92
0.3648359775543213,-0.26,-0.54,0.58,0.83
0.3807539939880371,-0.2,-0.11,0.07,0.23
0.3841719627380371,-0.04,-0.05,-0.44,0.44
0.3975989818572998,0.16,-0.13,-0.39,0.44
0.4078211784362793,-0.01,0.0,-0.26,0.26
0.41434717178344727,-0.2,0.22,-0.36,0.46
0.42440104484558105,-0.04,-0.03,-0.59,0.59
0.4346940517425537,0.02,-0.08,-0.62,0.62
0.4468960762023926,-0.2,0.17,-0.57,0.62
0.4572780132293701,-0.24,0.22,-0.64,0.71
0.46406984329223633,-0.01,0.17,-0.45,0.48
0.47397613525390625,0.34,-0.34,-0.24,0.53
0.48457908630371094,0.15,0.04,-0.03,0.15
0.4971809387207031,-0.15,0.29,-0.15,0.35
0.5078890323638916,-0.14,0.08,0.02,0.16
0.5139870643615723,0.14,-0.45,0.42,0.63
0.5237240791320801,0.32,-1.05,0.94,1.44
0.5344319343566895,-0.03,-0.75,1.35,1.54
0.5467228889465332,-0.43,-0.51,1.0,1.2
0.556689977645874,-0.63,-0.24,0.38,0.77
0.5635519027709961,-0.62,-0.41,-0.15,0.75
0.5737380981445312,-0.73,-0.26,-0.38,0.86
0.583482027053833,-0.55,-0.72,-0.56,1.06
0.5966379642486572,-0.75,0.33,-0.46,0.93
0.6072101593017578,-0.25,-0.51,-0.33,0.65
0.6133508682250977,0.04,-0.5,0.27,0.56
0.6236228942871094,-0.2,-0.33,0.43,0.57
0.6337151527404785,-0.18,-0.79,0.29,0.86
0.6458549499511719,-0.37,-0.21,0.03,0.42
0.6565730571746826,-0.24,-0.26,-0.08,0.36
0.6633410453796387,-0.03,-0.13,-0.06,0.14
0.6725900173187256,0.33,-0.64,0.36,0.8
0.6835198402404785,-0.04,-0.17,0.33,0.37
0.6958098411560059,-0.28,-0.6,0.1,0.66
0.7071700096130371,-0.68,0.03,0.02,0.68
0.7133989334106445,-0.55,-0.4,-0.07,0.68
0.7227530479431152,-0.49,-0.11,-0.25,0.56
0.7329649925231934,-0.08,-0.68,-0.19,0.71
0.7455458641052246,0.06,-0.8,-0.07,0.8
0.7557001113891602,-0.18,-0.45,-0.36,0.6
0.7626869678497314,-0.23,-0.68,-0.35,0.79
0.7728359699249268,-0.36,-0.31,-0.36,0.59
0.7830848693847656,-0.18,-0.44,-0.38,0.6
0.7950921058654785,-0.15,-0.3,-0.43,0.54
0.8056049346923828,-0.41,0.37,-0.67,0.86
0.8124399185180664,-0.39,0.49,-0.94,1.12
0.8224539756774902,-0.15,-0.09,-0.97,0.98
0.8326401710510254,-0.27,0.45,-0.99,1.12
0.8453190326690674,-0.4,0.69,-0.89,1.19
0.8560571670532227,-0.25,0.41,-0.26,0.54
0.8626010417938232,-0.3,0.98,-0.24,1.05
0.8720560073852539,0.25,0.58,-0.34,0.71
0.8829300403594971,0.91,-0.03,-0.06,0.91
0.8944950103759766,0.88,0.39,-0.15,0.97
0.9056210517883301,0.2,0.87,-0.35,0.95
0.9117588996887207,-0.35,1.37,-0.43,1.47
0.9217159748077393,-0.71,0.89,-0.12,1.14
0.931851863861084,-0.89,0.47,0.06,1.0
0.944368839263916,-0.76,0.25,0.16,0.81
0.9549188613891602,-0.59,0.09,0.33,0.68
0.9612789154052734,-0.3,0.07,0.39,0.49
0.9714610576629639,-0.29,-0.37,0.52,0.7
0.981989860534668,-0.52,-0.38,0.34,0.72
0.9939799308776855,-0.74,-0.4,0.36,0.91
1.0038390159606934,-0.75,-0.39,0.37,0.92
1.0109519958496094,-0.48,-0.25,0.45,0.7
1.0210919380187988,-0.31,-0.21,0.71,0.8
1.0316829681396484,-0.26,-0.11,0.84,0.88
1.0439600944519043,-0.23,0.27,0.49,0.6
1.0542089939117432,-0.41,0.04,0.36,0.54
1.0614619255065918,-0.42,0.01,0.12,0.43
1.0711770057678223,-0.39,-0.3,0.16,0.51
1.0810949802398682,-0.57,0.03,0.02,0.57
1.094012975692749,-0.52,0.35,-0.4,0.74
1.1042959690093994,-0.47,-0.28,-0.23,0.59
1.1107678413391113,-0.45,0.35,-0.41,0.7
1.1205968856811523,-0.55,0.01,-0.5,0.74
1.130990982055664,-0.56,0.23,-0.29,0.67
1.1434359550476074,-0.19,0.18,-0.07,0.27
1.1544060707092285,0.28,-0.29,0.17,0.43
1.1604740619659424,0.33,-0.23,0.29,0.49
1.17057204246521,-0.03,-0.55,-0.91,1.06
1.1805338859558105,-0.74,-0.4,-2.0,2.16
1.1930890083312988,-1.32,0.85,-1.0,1.86
1.202991008758545,-0.83,0.59,-0.19,1.03
1.2098050117492676,-0.1,0.14,-0.03,0.17
1.219864845275879,0.36,-0.01,0.02,0.36
1.2302041053771973,0.63,-0.17,0.05,0.65
1.2427878379821777,0.63,-0.04,0.8,1.01
1.2530829906463623,0.51,-0.27,1.11,1.25
1.2596659660339355,0.11,0.03,-0.43,0.44
1.2698299884796143,-0.07,0.49,-0.01,0.49
1.2802660465240479,0.26,-0.66,-0.44,0.83
1.2926759719848633,0.45,0.35,1.0,1.15
1.30311918258667,0.99,0.34,0.61,1.21
1.3092410564422607,1.39,-0.14,-0.95,1.68
1.3200700283050537,1.26,-0.26,-0.54,1.39
1.3301410675048828,0.86,-0.34,-0.59,1.09
1.3427071571350098,0.18,-0.24,-0.84,0.89
1.3532800674438477,-0.81,-0.13,-0.46,0.94
1.3594729900360107,-0.71,-0.24,1.28,1.48
1.3690638542175293,-0.23,-0.63,-0.13,0.68
1.3804450035095215,-0.58,-0.44,-0.69,1.0
1.39176607131958,-0.13,-0.38,0.62,0.73
1.4028759002685547,-0.61,-0.5,0.94,1.22
1.4088430404663086,-0.38,0.21,0.68,0.8
1.4189391136169434,-0.25,0.73,1.04,1.29
1.4296460151672363,-0.23,0.5,1.43,1.53
1.4419550895690918,-0.73,0.49,2.36,2.51
1.452368974685669,-1.56,-0.13,1.87,2.43
1.45855712890625,-2.34,0.18,2.23,3.23
1.4685750007629395,-1.15,1.28,3.23,3.65
1.4793710708618164,0.15,-0.46,1.98,2.03
1.4915919303894043,0.16,-0.8,-0.44,0.92
1.502406120300293,-1.25,-0.24,-1.05,1.65
1.5080151557922363,-1.53,0.37,-1.05,1.89
1.5186591148376465,-0.19,-0.04,-1.34,1.35
1.5283379554748535,0.84,-0.16,-1.7,1.9
1.5413730144500732,1.32,-0.12,-2.0,2.39
1.552145004272461,1.14,-0.2,-2.27,2.54
1.5579419136047363,0.78,-0.39,-2.43,2.58
1.568739891052246,0.42,-0.54,-2.41,2.5
1.5781610012054443,0.36,-0.52,-2.54,2.61
1.5912208557128906,0.62,-0.35,-2.73,2.82
1.6018171310424805,0.76,-0.19,-2.69,2.8
1.6079630851745605,0.53,-0.17,-2.5,2.56
1.6179850101470947,0.32,-0.29,-2.14,2.18
1.6282119750976562,0.31,-0.44,-1.33,1.43
1.6407079696655273,0.04,-0.14,1.26,1.26
1.6511740684509277,0.61,0.2,3.44,3.49
1.657440185546875,0.33,0.25,4.43,4.44
1.667862892150879,-0.76,0.06,4.29,4.35
1.677401065826416,-1.82,-0.12,2.55,3.13
1.6903979778289795,-5.27,0.93,0.3,5.35
1.7010269165039062,-3.29,1.38,0.76,3.64
1.70704984664917,-1.24,0.62,3.19,3.47
1.7178149223327637,0.65,-0.34,1.13,1.34
1.7272958755493164,1.17,-0.4,-0.43,1.3
1.740333080291748,0.16,0.5,0.34,0.62
1.751147985458374,-0.15,0.31,0.67,0.75
1.7568750381469727,-0.4,0.05,0.73,0.83
1.767406940460205,-0.77,-0.14,0.62,0.99
1.7770249843597412,-0.77,-0.16,0.39,0.87
1.7888250350952148,-0.53,0.04,-0.14,0.54
1.7992849349975586,-0.82,0.33,-0.84,1.21
1.8065829277038574,-1.16,0.35,-1.05,1.6
1.8170719146728516,1.37,-0.2,-0.9,1.65
1.8267168998718262,2.5,-1.21,-1.66,3.23
1.8391399383544922,2.21,-1.92,-2.75,4.01
1.849794864654541,1.08,-1.67,-3.53,4.05
1.8566529750823975,1.07,-0.59,-4.25,4.42
1.8669350147247314,2.58,-1.41,-2.28,3.72
1.8766369819641113,1.12,-0.72,0.38,1.38
1.8886141777038574,-1.7,1.12,2.9,3.54
1.8998520374298096,-2.11,0.15,3.69,4.25
1.9059929847717285,-1.7,-0.82,2.63,3.23
1.9166259765625,-0.88,0.07,0.47,1.0
1.9262239933013916,0.0,-1.63,-1.21,2.03
1.9384288787841797,0.9,-2.33,-2.76,3.72
1.949242115020752,1.05,-2.79,-2.85,4.12
1.9557080268859863,1.05,-3.12,-2.02,3.86
1.9660179615020752,0.81,-3.0,-1.42,3.41
1.9760279655456543,-0.29,-2.93,-1.05,3.12
1.9891290664672852,-0.96,-3.34,-1.81,3.91
2.0003838539123535,-1.47,-3.68,-2.37,4.61
2.005560874938965,-0.19,-1.73,-0.78,1.9
2.0158610343933105,-0.07,1.38,-0.51,1.47
2.025583028793335,-0.2,1.99,-0.48,2.05
2.038912057876587,0.28,2.45,2.62,3.59
2.0511999130249023,-0.14,5.21,10.88,12.06
2.0553719997406006,-0.1,7.57,10.44,12.89
2.0659890174865723,-0.82,1.58,-2.65,3.19
2.0751781463623047,-0.7,-0.1,-5.14,5.18
2.089003086090088,-0.05,1.57,-2.09,2.61
2.1006579399108887,-0.16,1.3,-0.7,1.48
2.1053619384765625,0.11,0.37,0.52,0.64
2.115689992904663,0.52,-0.31,0.91,1.09
2.1253340244293213,0.63,-0.3,0.19,0.72
2.1383938789367676,0.3,-0.38,-0.34,0.59
2.150369167327881,-0.06,-0.66,-0.56,0.86
2.1547679901123047,-0.13,-0.79,-0.28,0.84
2.165347099304199,-0.76,-0.47,0.11,0.9
2.175178050994873,-1.33,0.05,0.08,1.33
2.187870979309082,-1.72,0.13,0.46,1.78
2.199267864227295,-1.87,0.04,1.17,2.2
2.20448899269104,-2.15,0.12,1.19,2.46
2.214907169342041,-3.19,-1.41,1.24,3.7
2.224708080291748,-2.84,-0.77,0.44,2.97
2.236778974533081,-1.38,1.6,-1.16,2.41
2.247812032699585,-0.56,1.09,-2.21,2.52
2.2543270587921143,-1.01,1.08,-1.93,2.43
2.264669895172119,-1.0,0.75,-0.97,1.58
2.274412155151367,-0.11,0.42,0.01,0.43
2.286550998687744,0.48,0.12,0.02,0.49
2.297791004180908,0.51,-0.07,0.09,0.52
2.3039021492004395,1.25,-0.77,-0.48,1.54
2.314887046813965,0.8,-0.44,-0.36,0.98
2.3239169120788574,0.01,-0.44,-0.13,0.45
2.3365049362182617,-0.22,-0.13,-0.02,0.25
2.3476650714874268,0.09,-0.28,0.21,0.36
2.354011058807373,0.36,0.37,0.5,0.71
2.36441707611084,0.32,0.01,0.31,0.44
2.374034881591797,-0.19,-0.59,0.0,0.61
2.386993885040283,0.07,-1.09,0.41,1.16
2.3982529640197754,-0.14,-0.84,0.98,1.29
2.4035491943359375,-0.2,-0.19,0.86,0.9
2.414680004119873,0.22,-0.35,-0.1,0.42
2.4239091873168945,0.6,-0.3,-1.14,1.32
2.43698787689209,0.66,-0.26,-0.11,0.71
2.4488720893859863,0.35,-0.47,0.99,1.15
2.453239917755127,0.1,-0.2,0.58,0.62
2.463749885559082,0.11,-0.37,0.18,0.42
2.4730780124664307,0.17,-0.64,-0.24,0.7
2.4855380058288574,0.62,-0.4,-0.54,0.91
2.4975500106811523,0.54,0.03,0.07,0.54
2.50285005569458,0.32,0.55,-0.02,0.63
2.5146079063415527,0.06,1.01,-0.24,1.03
2.522709846496582,0.1,0.3,-0.31,0.44
2.535378932952881,-0.09,-1.21,0.3,1.24
2.54659104347229,-0.69,0.57,-0.57,1.06
2.5526561737060547,-1.35,1.31,-0.85,2.06
2.564793109893799,-1.75,0.66,0.74,2.01
2.5728211402893066,-1.26,-0.62,1.21,1.85
2.5854201316833496,-0.19,-1.13,1.11,1.59
2.5966100692749023,0.18,-0.75,0.68,1.02
2.6026129722595215,0.35,0.1,-0.16,0.39
2.6152429580688477,0.63,0.57,-0.81,1.17
2.6229360103607178,0.71,0.11,-1.09,1.3
2.6348109245300293,0.03,-0.21,-1.42,1.43
2.6459641456604004,-0.37,-0.17,-1.08,1.15
2.6520891189575195,-0.09,-0.22,-0.72,0.75
2.665055990219116,-0.03,0.01,-0.53,0.53
2.672410011291504,-0.18,0.31,-0.78,0.85
2.6844840049743652,-0.94,0.79,-1.12,1.66
2.6960530281066895,-1.33,1.14,-0.59,1.84
2.701824188232422,-1.23,0.23,1.29,1.79
2.7150959968566895,-0.55,-0.66,1.25,1.51
2.7217259407043457,-0.54,-0.76,1.44,1.71
2.7342770099639893,0.04,-0.51,2.09,2.15
2.745521068572998,0.82,-0.76,1.08,1.55
2.7515079975128174,0.95,-0.65,-0.25,1.17
2.764497995376587,0.65,-0.28,-1.37,1.54
2.771419048309326,-0.05,-0.01,-1.54,1.54
2.783945083618164,-0.07,-0.05,-0.87,0.87
2.7953410148620605,-0.49,0.08,-0.26,0.56
2.8012771606445312,-1.09,0.24,0.19,1.13
2.8147411346435547,-1.14,0.1,0.46,1.23
2.821195125579834,-0.56,-0.45,0.62,0.94
2.8350419998168945,-0.21,-0.5,0.08,0.54
2.8464460372924805,0.18,-0.12,-0.55,0.59
2.8513669967651367,0.41,0.0,-1.11,1.18
2.8657240867614746,0.13,0.05,-0.53,0.54
2.871263027191162,-0.17,-0.01,0.19,0.25
2.883749008178711,-0.34,0.05,0.49,0.59
2.8957910537719727,-0.36,0.08,0.67,0.76
2.9007458686828613,-0.74,0.09,0.4,0.84
2.9154958724975586,-2.2,0.26,-0.01,2.21
2.9205288887023926,-2.64,-0.31,-0.23,2.66
2.9333181381225586,-0.85,-0.73,0.31,1.16
2.9447519779205322,0.65,-0.81,0.45,1.13
2.9504730701446533,0.96,-0.92,0.01,1.32
2.965056896209717,1.39,-0.75,1.78,2.37
2.970489978790283,1.86,-0.55,5.62,5.94
2.9828720092773438,0.96,1.3,0.95,1.87
2.9943840503692627,0.93,1.24,-2.45,2.89
3.000248908996582,-0.87,1.02,-2.21,2.58
3.0152711868286133,-1.44,0.91,-0.64,1.81
3.020069122314453,-0.09,-0.17,-0.65,0.67
3.0334081649780273,-0.2,-1.05,-1.12,1.54
3.045197010040283,-0.66,-0.81,-1.13,1.53
3.0500478744506836,-0.77,-0.21,-1.01,1.28
3.065561056137085,-0.6,-0.03,-1.16,1.3
3.06990385055542,-0.32,0.29,-0.23,0.48
3.0831470489501953,0.07,0.39,0.53,0.66
3.0950441360473633,0.46,0.21,0.31,0.59
3.100283145904541,0.52,-0.02,-0.41,0.66
3.115893840789795,0.48,-0.12,-1.0,1.11
3.1197891235351562,0.45,-0.25,-1.0,1.12
3.1321780681610107,0.32,-0.1,-0.18,0.38
3.143796920776367,-0.13,0.28,0.44,0.53
3.1495461463928223,-0.61,-0.07,-0.4,0.73
3.1662678718566895,-0.9,-0.15,0.46,1.02
3.1695220470428467,-0.82,0.33,0.67,1.1
3.1825571060180664,-0.52,0.52,0.24,0.77
3.1942989826202393,-0.28,0.28,0.26,0.47
3.1990890502929688,0.7,-0.46,3.86,3.94
3.2149100303649902,1.48,-1.69,3.94,4.53
3.219151020050049,0.96,-1.12,-1.37,2.01
3.2312920093536377,0.98,-0.39,-1.46,1.8
3.243083953857422,0.4,0.4,-0.66,0.86
3.2491300106048584,0.17,0.7,-1.94,2.06
3.2588720321655273,-0.28,0.44,-1.5,1.58
3.2693638801574707,-0.81,0.53,-0.77,1.23
3.281244993209839,-0.7,0.26,-0.89,1.16
3.2932581901550293,-0.31,0.07,-0.43,0.53
3.2987420558929443,-0.17,0.17,0.33,0.4
3.3092050552368164,-0.1,0.0,1.01,1.01
3.319000005722046,-0.33,-0.02,0.91,0.96
3.331186056137085,-0.33,-0.2,0.54,0.66
3.342741012573242,-0.32,-0.05,-0.29,0.43
3.3488521575927734,-0.27,0.05,-0.88,0.92
3.3585848808288574,-0.13,-0.23,-1.41,1.43
3.369168996810913,-0.26,-0.6,-0.14,0.66
3.3805198669433594,-0.41,-0.3,1.23,1.33
3.3924269676208496,-0.28,-0.05,1.92,1.94
3.3982930183410645,-0.02,0.0,1.26,1.26
3.4084889888763428,-0.14,0.1,0.01,0.17
3.418361186981201,-0.31,0.11,-0.2,0.38
3.4304230213165283,-0.55,0.26,-0.33,0.69
3.442800998687744,-0.35,0.07,-0.52,0.63
3.4487228393554688,-0.18,0.11,-0.74,0.76
3.458204984664917,-0.31,0.47,-0.67,0.87
3.4683120250701904,-0.14,0.11,0.19,0.26
3.480026960372925,0.05,-0.49,0.5,0.7
3.4915518760681152,0.14,-0.93,0.57,1.09
3.4980149269104004,0.18,-0.94,0.14,0.96
3.5075740814208984,0.03,-0.62,-0.42,0.74
3.5177080631256104,-0.09,-0.26,-0.09,0.28
3.5297560691833496,-0.03,0.12,0.31,0.33
3.5409741401672363,0.26,-0.28,0.33,0.5
3.5480799674987793,0.42,-1.08,0.7,1.35
3.55777907371521,0.52,-1.11,0.03,1.22
3.567762851715088,0.43,0.11,-1.16,1.24
3.579719066619873,0.23,0.35,-0.09,0.42
3.591383934020996,-0.55,-0.6,2.11,2.26
3.5977420806884766,-1.23,-0.34,1.74,2.15
3.6071481704711914,-0.98,0.33,-1.69,1.98
3.6177079677581787,-1.38,0.86,-2.34,2.84
3.629106044769287,-1.56,0.87,-1.31,2.21
3.640773057937622,-1.35,0.53,-0.73,1.62
3.6476058959960938,-0.73,0.17,-0.11,0.75
3.6569418907165527,0.14,-0.2,0.03,0.24
3.6672749519348145,0.44,-0.03,-0.31,0.53
3.6790518760681152,0.6,-0.04,-0.03,0.6
3.6906850337982178,0.75,-0.41,0.33,0.91
3.696539878845215,0.52,-0.39,0.58,0.87
3.706775188446045,0.64,-0.53,0.1,0.83
3.717041015625,0.74,-0.72,-0.08,1.03
3.728584051132202,0.48,-0.31,0.22,0.61
3.7400989532470703,0.73,-0.2,-0.34,0.82
3.7463979721069336,0.93,0.12,-0.03,0.93
3.756422996520996,1.15,0.03,0.07,1.15
3.766784191131592,1.35,-0.42,-0.19,1.42
3.7783210277557373,0.92,-0.55,0.6,1.22
3.7903571128845215,0.61,-0.43,1.12,1.34
3.7961020469665527,0.16,-0.11,0.72,0.74
3.80653715133667,-0.15,0.03,-0.54,0.56
3.8162899017333984,-0.43,0.33,-1.17,1.28
3.828449010848999,-0.82,0.39,-1.2,1.5
3.840481996536255,-1.11,0.4,-1.07,1.59
3.8461480140686035,-1.84,0.5,0.52,1.97
3.855879068374634,-1.37,0.09,0.76,1.56
3.8667731285095215,-0.93,0.14,-1.66,1.9
3.8778629302978516,-0.78,0.4,-2.98,3.1
3.8902859687805176,-0.82,0.89,-2.7,2.95
3.8956151008605957,-0.6,0.61,-1.21,1.48
3.9057631492614746,-0.19,-0.02,-0.15,0.24
3.9158480167388916,-0.02,-0.57,1.26,1.38
3.927431106567383,-0.09,-0.5,2.3,2.35
3.939497947692871,-0.07,-0.2,2.56,2.56
3.9454379081726074,0.39,-0.26,1.74,1.8
3.9553089141845703,0.75,-0.44,0.82,1.19
3.965691089630127,0.52,-0.36,0.12,0.64
3.977242946624756,0.0,0.04,-0.14,0.14
3.9890241622924805,-0.45,0.68,-0.01,0.81
3.995203971862793,-0.76,0.13,-0.13,0.78
4.005182981491089,-0.94,-0.76,0.67,1.38
4.016786098480225,-0.46,-0.7,-0.26,0.87
4.026701927185059,-0.56,-0.05,-0.67,0.87
4.038147926330566,-0.29,0.18,-0.39,0.51
4.044757843017578,-0.21,0.38,-0.32,0.53
4.055217981338501,-0.08,-0.09,-0.16,0.2
4.065042018890381,-0.15,-0.26,0.46,0.54
4.077001094818115,-0.23,-0.17,0.54,0.61
4.0886549949646,0.02,-0.02,0.36,0.36
4.0942840576171875,0.11,-0.08,-0.33,0.35
4.104905128479004,0.15,-0.34,-0.58,0.68
4.115543842315674,0.26,-0.53,-0.49,0.76
4.1268370151519775,0.81,-0.38,0.15,0.9
4.138845920562744,0.87,0.04,0.33,0.93
4.1442341804504395,0.61,0.63,0.13,0.88
4.154571056365967,0.13,0.21,0.58,0.63
4.1651530265808105,0.28,-0.14,0.63,0.7
4.176107883453369,-0.43,-0.4,0.39,0.7
4.187792062759399,-0.86,-0.07,-0.1,0.86
4.19375205039978,-0.11,-0.54,-0.68,0.87
4.20444917678833,-0.16,-0.5,0.24,0.57
4.21477198600769,-0.42,-0.46,1.08,1.24
4.226101875305176,-0.43,-0.47,1.49,1.62
4.237812042236328,-0.49,-0.25,1.76,1.84
4.243829011917114,-0.58,-0.47,0.32,0.81
4.25361704826355,-0.83,0.11,-0.41,0.93
4.2646520137786865,-0.03,-0.11,-0.97,0.97
4.275639057159424,0.23,0.11,-1.0,1.03
4.287477016448975,-0.52,0.27,-1.25,1.38
4.29331111907959,-0.69,-0.05,-0.85,1.09
4.303735017776489,-0.42,-0.38,-0.25,0.61
4.313883066177368,0.14,-0.2,1.08,1.1
4.325509071350098,0.22,-0.49,1.66,1.74
4.337347984313965,-0.39,0.2,-0.67,0.8
4.343034982681274,-0.81,0.03,-1.68,1.86
4.3534698486328125,-0.19,-0.13,-1.03,1.05
4.36326003074646,0.35,-0.14,0.15,0.4
4.375241994857788,2.46,-1.89,0.12,3.1
4.387621879577637,-0.87,0.78,2.84,3.07
4.392651081085205,-0.74,0.65,0.55,1.12
4.40312385559082,-0.85,-0.1,-2.86,2.98
4.41313099861145,-1.09,1.17,-2.46,2.93
4.424661159515381,-0.36,0.58,-0.68,0.96
4.436222076416016,-0.26,-0.11,-0.14,0.31
4.4425389766693115,-0.19,-0.26,-0.65,0.72
4.453096866607666,-0.43,-0.39,-0.77,0.96
4.4627299308776855,-0.58,-0.12,-0.68,0.9
4.474830150604248,-0.43,-0.01,-0.78,0.89
4.486298084259033,-0.17,-0.17,-0.53,0.58
4.492432117462158,-0.15,-0.31,0.08,0.35
4.502776145935059,-0.56,-0.17,0.09,0.59
4.513143062591553,-0.76,-0.15,0.06,0.77
4.524350166320801,-0.31,0.03,0.52,0.6
4.536012172698975,0.18,0.27,0.31,0.44
4.541936874389648,0.44,0.06,0.22,0.49
4.552278995513916,0.47,-0.02,0.22,0.51
4.562100887298584,0.27,0.02,0.06,0.27
4.574129104614258,0.15,-0.22,0.27,0.37
4.584847927093506,-0.09,-0.12,0.78,0.79
4.591564178466797,-0.02,0.09,0.42,0.43
4.602185010910034,0.29,-0.18,0.13,0.36
4.6122660636901855,0.59,-0.51,0.51,0.93
4.624174118041992,1.49,-0.37,0.68,1.67
4.636085033416748,0.72,-0.29,-0.02,0.77
4.641411066055298,-0.13,-0.45,-0.14,0.48
4.6517109870910645,-0.38,-0.34,-0.86,0.99
4.6617560386657715,-0.54,-0.28,-0.72,0.94
4.673647880554199,0.17,-0.13,-0.22,0.3
4.685563087463379,0.71,0.15,-0.14,0.73
4.6910319328308105,0.43,0.15,-0.13,0.47
4.701949119567871,0.32,0.08,0.46,0.56
4.711263179779053,0.34,0.3,0.46,0.64
4.723637104034424,0.45,-0.04,-1.1,1.18
4.735398054122925,-0.08,-0.07,-0.36,0.37
4.741173982620239,-0.43,0.45,0.2,0.65
4.751396179199219,0.73,0.08,-1.16,1.37
4.761157989501953,-1.38,-0.13,-0.58,1.5
4.773162841796875,-2.0,-0.02,0.77,2.14
4.785300016403198,-0.33,-0.81,-0.6,1.06
4.790428161621094,0.87,-0.3,-0.62,1.1
4.801470041275024,-0.34,0.04,-0.74,0.81
4.810810089111328,-1.99,-0.2,-0.33,2.02
4.822795867919922,-1.96,-0.84,0.84,2.29
4.834712028503418,-1.49,-0.6,1.4,2.13
4.840278148651123,-0.85,0.19,1.03,1.34
4.8509111404418945,-0.32,1.04,0.91,1.41
4.860680103302002,-0.1,0.56,0.85,1.02
4.872488021850586,0.47,0.18,-0.2,0.54
4.884692192077637,0.54,-0.25,-1.38,1.5
4.890027046203613,-0.37,-0.63,-0.82,1.09
4.900729179382324,-0.91,-0.31,-0.24,0.99
4.910037994384766,-0.7,0.15,0.2,0.74
4.922232151031494,-0.7,0.28,0.34,0.82
4.934251070022583,-0.8,0.41,0.27,0.93
4.939712047576904,-0.85,0.19,0.12,0.87
4.950614929199219,-0.67,0.1,0.22,0.71
4.959815979003906,0.09,0.16,-0.42,0.45
4.972483158111572,-0.16,-0.52,-0.84,1.0
4.9849159717559814,-0.28,-0.2,-0.82,0.88
4.989713191986084,0.53,-0.09,-0.44,0.69
5.001018047332764,0.86,-0.01,-0.6,1.04
5.009832859039307,0.66,0.02,-0.42,0.78
5.021941184997559,0.36,0.06,0.45,0.57
5.034020900726318,0.33,-0.08,0.79,0.85
5.039376974105835,0.47,-0.15,0.5,0.7
5.050029039382935,0.89,-0.31,0.26,0.97
5.0596020221710205,0.73,-0.42,-0.04,0.84
5.071563959121704,0.5,-0.21,0.01,0.54
5.083059072494507,0.11,-0.26,-0.02,0.28
5.089054107666016,-0.28,-0.13,-0.1,0.32
5.099454879760742,-0.31,-0.2,-0.29,0.46
5.109311103820801,-0.46,-0.3,0.03,0.55
5.12169885635376,-0.53,-0.07,0.71,0.88
5.134404182434082,-0.45,0.14,0.51,0.69
5.1390299797058105,-0.3,-0.4,-0.51,0.71
5.149389982223511,0.21,-0.24,-0.55,0.63
5.15880012512207,1.02,-0.18,-0.28,1.07
5.171295166015625,0.96,-0.15,-0.74,1.22
5.184299945831299,0.54,-0.3,-0.36,0.71
5.188459873199463,0.24,-0.1,-0.03,0.26
5.199441909790039,-0.04,-0.19,-0.43,0.47
5.208433151245117,0.2,-0.48,-1.31,1.4
5.221273899078369,0.42,-0.29,-1.41,1.49
5.2334489822387695,0.4,-0.17,-1.03,1.11
5.238469123840332,-0.07,-1.18,-0.2,1.19
5.249031066894531,-0.76,1.33,2.59,3.0
5.258612155914307,-0.47,1.47,1.18,1.94
5.270477056503296,-0.17,-0.4,0.0,0.43
5.281662940979004,0.06,0.02,0.04,0.07
5.288034915924072,0.21,0.03,-0.11,0.23
5.299082040786743,0.09,-0.12,-0.28,0.31
5.308114051818848,0.11,-0.36,-0.46,0.59
5.320307970046997,-0.23,-0.5,-0.56,0.78
5.331674098968506,-0.35,-0.68,-0.3,0.82
5.337675094604492,-0.7,-0.58,-0.06,0.91
5.349300861358643,-0.9,0.06,-0.14,0.91
5.357529163360596,-1.04,0.12,-0.26,1.07
5.370185852050781,-0.95,0.1,-0.59,1.12
5.381784915924072,-0.96,0.0,-0.16,0.97
5.3873679637908936,-0.92,0.06,0.39,1.0
5.399226188659668,-0.2,-0.46,-0.13,0.51
5.40765905380249,-0.66,-0.05,0.57,0.87
5.419600963592529,0.32,0.28,0.48,0.64
5.431272983551025,1.13,-1.06,-0.37,1.59
5.437158107757568,1.01,-2.26,0.37,2.5
5.450060844421387,-0.59,-0.8,1.65,1.92
5.4574198722839355,-1.48,2.43,0.66,2.92
5.469615936279297,1.18,-0.97,-0.94,1.79
5.481503009796143,-0.94,-0.56,1.44,1.8
5.487227916717529,-0.27,-1.19,-0.96,1.55
5.500099182128906,-0.26,-1.2,-2.8,3.05
5.5074779987335205,-1.07,-0.14,-1.3,1.68
5.519497871398926,-0.95,0.99,0.28,1.4
5.531569004058838,0.91,0.14,-0.59,1.09
5.536617994308472,1.41,-0.92,-0.62,1.79
5.549117088317871,0.53,-0.61,0.15,0.82
5.556623935699463,0.43,-1.03,-0.62,1.27
5.569566965103149,0.61,-0.91,-1.25,1.66
5.581539154052734,-0.22,0.01,-1.16,1.18
5.5868000984191895,-0.29,1.04,0.05,1.08
5.599164009094238,-0.21,1.77,1.66,2.43
5.606307029724121,-0.49,1.7,2.18,2.8
5.618680000305176,-0.58,0.89,1.58,1.9
5.630497932434082,-0.36,0.19,0.94,1.02
5.6360979080200195,-0.2,-0.13,0.46,0.51
5.649116039276123,-0.23,-0.38,-0.45,0.63
5.656134128570557,-0.2,-0.4,-0.82,0.93
5.668442964553833,-0.25,-0.15,-0.79,0.84
5.680361032485962,-0.08,-0.1,-0.28,0.3
5.685788154602051,-0.38,-0.06,-0.15,0.41
5.69980001449585,-0.4,-0.06,-0.01,0.4
5.705985069274902,-0.82,0.06,0.21,0.84
5.718551158905029,-0.94,0.09,0.36,1.01
5.730607032775879,-0.65,0.03,0.65,0.91
5.735806941986084,-0.33,-0.01,0.79,0.85
5.749668121337891,-0.18,-0.08,0.59,0.62
5.756069183349609,-0.23,0.05,0.27,0.35
5.768370151519775,-0.31,0.06,-0.09,0.32
5.780953884124756,-0.22,0.04,-0.39,0.44
5.785420894622803,-0.01,0.08,-0.33,0.33
5.799800872802734,0.1,0.1,-0.21,0.25
5.805269956588745,0.1,0.13,-0.3,0.34
5.818143844604492,0.01,0.17,-0.49,0.51
5.830249071121216,0.08,0.3,-0.31,0.43
5.8354878425598145,0.36,0.28,-0.21,0.5
5.849469184875488,0.47,0.35,-0.32,0.66
5.85541296005249,0.5,0.46,-0.34,0.75
5.867974042892456,0.6,0.37,-0.39,0.8
5.879609107971191,0.74,0.22,-0.48,0.9
5.884809970855713,0.72,0.22,-0.54,0.92
5.900237083435059,0.63,0.26,-0.63,0.92
5.904801845550537,0.57,0.25,-0.57,0.84
5.918256998062134,0.46,0.31,-0.21,0.59
5.929851055145264,0.49,0.3,-0.03,0.57
5.934791088104248,0.38,0.24,-0.09,0.45
5.949709892272949,-0.18,0.34,-0.43,0.57
5.954537868499756,0.03,0.17,-0.33,0.37
5.968131065368652,0.35,-0.1,-0.08,0.37
5.9803290367126465,0.28,0.05,0.52,0.59
5.984902858734131,0.24,0.21,0.7,0.76
5.999678134918213,0.14,0.28,0.03,0.31
6.0046069622039795,0.3,0.22,-0.29,0.47
6.017126083374023,0.46,-0.09,-0.4,0.61
6.028482913970947,0.62,-0.15,-0.33,0.71
6.034082889556885,0.56,-0.1,-0.2,0.6
6.049138069152832,0.33,-0.03,-0.13,0.35
6.054154872894287,0.38,-0.1,-0.26,0.47
6.066535949707031,0.17,-0.17,-0.55,0.6
6.078284025192261,0.04,-0.13,-0.47,0.48
6.083704948425293,-0.08,-0.07,-0.25,0.27
6.099434852600098,-0.27,0.04,0.02,0.27
6.103682994842529,-0.55,0.09,0.25,0.61
6.11611795425415,-0.81,0.05,0.21,0.83
6.127613067626953,-0.99,-0.08,0.2,1.01
6.134081840515137,-0.89,-0.24,0.15,0.93
6.14375901222229,-0.84,-0.23,0.16,0.88
6.154442071914673,-0.96,-0.11,0.11,0.97
6.165899038314819,-0.97,-0.09,-0.03,0.97
6.177876949310303,-0.8,-0.1,0.04,0.8
6.183470010757446,-0.68,-0.11,0.03,0.68
6.193512916564941,-0.47,-0.19,0.09,0.51
6.203432083129883,-0.27,-0.25,0.01,0.36
6.2157440185546875,-0.18,-0.26,-0.12,0.33
6.227890968322754,0.0,-0.2,-0.21,0.29
6.232914924621582,0.2,-0.19,-0.31,0.41
6.25072717666626,0.23,-0.15,-0.26,0.37
6.25280499458313,0.21,-0.2,-0.19,0.34
6.266365051269531,0.09,-0.28,-0.13,0.32
6.277781963348389,-0.09,-0.33,-0.12,0.36
6.283010959625244,-0.18,-0.43,-0.06,0.47
6.292824029922485,-0.26,-0.45,0.11,0.53
6.303123950958252,-0.27,-0.39,0.29,0.55
6.3146209716796875,-0.29,-0.35,0.31,0.55
6.325587034225464,-0.23,-0.32,0.28,0.48
6.33259391784668,-0.13,-0.36,0.22,0.44
6.342947959899902,0.01,-0.41,0.08,0.41
6.352864027023315,0.09,-0.49,-0.01,0.49
6.364228963851929,0.18,-0.43,0.02,0.46
6.375577926635742,0.44,-0.46,-0.01,0.63
6.382485866546631,0.37,-0.35,-0.3,0.59
6.392675876617432,0.35,-0.23,0.03,0.41
6.402489185333252,0.25,-0.58,-0.09,0.63
6.4143218994140625,0.12,-0.46,0.01,0.47
6.425371170043945,0.18,-0.48,-0.11,0.52
6.432433128356934,0.28,-0.54,-0.17,0.63
6.442102909088135,-0.25,-0.37,0.17,0.47
6.452347040176392,-0.99,-0.61,0.12,1.16
6.463544845581055,-0.66,-0.83,-0.24,1.08
6.47445011138916,-0.38,-0.08,0.54,0.66
6.482128143310547,-0.39,0.06,0.74,0.83
6.491631031036377,-0.63,-0.59,0.23,0.89
6.502470016479492,-0.96,-0.68,0.2,1.19
6.513761043548584,-1.07,-0.76,0.22,1.33
6.526660919189453,-1.06,-0.79,0.34,1.36
6.532477855682373,-1.14,-0.89,0.25,1.46
6.541161060333252,-1.35,-0.87,-0.15,1.61
6.5516438484191895,-0.95,-0.38,-0.19,1.04
6.5636138916015625,-0.49,0.08,0.26,0.56
6.575900077819824,-0.24,0.49,0.65,0.84
6.5818400382995605,-0.2,0.34,0.73,0.82
6.591363906860352,0.09,-0.02,0.53,0.53
6.601529121398926,0.27,-0.27,-0.08,0.39
6.613607883453369,0.23,-0.51,-0.8,0.97
6.6255810260772705,-0.02,-0.53,-1.17,1.28
6.632350921630859,-0.23,-0.35,-0.18,0.45
6.641183853149414,0.24,-0.91,-0.54,1.08
6.651357173919678,0.15,-0.01,-0.34,0.37
6.66281795501709,-0.03,0.8,0.35,0.87
6.674508094787598,0.16,-0.11,-0.13,0.23
6.680633068084717,-1.58,1.02,-0.08,1.88
6.690988063812256,-2.79,1.99,3.46,4.86
6.701060056686401,-1.92,-0.54,1.72,2.63
6.712838172912598,-1.27,-0.86,0.36,1.57
6.724663019180298,-1.2,0.24,0.7,1.4
6.730447053909302,-1.02,0.13,-0.07,1.03
6.740748882293701,-0.24,-1.27,-1.21,1.77
6.750853061676025,0.33,-1.23,-1.06,1.65
6.7625041007995605,0.35,-0.17,-0.78,0.87
6.774560928344727,0.51,0.35,-1.0,1.17
6.780027866363525,0.56,0.41,-0.66,0.95
6.790440082550049,0.31,0.79,-0.41,0.94
6.800407886505127,0.6,0.81,-0.52,1.13
6.81238317489624,0.37,0.66,-0.02,0.75
6.824471950531006,0.31,0.33,0.38,0.59
6.830095052719116,0.31,0.17,-0.1,0.36
6.8398871421813965,0.23,-0.6,-1.04,1.22
6.85057806968689,0.39,-0.54,-1.27,1.43
6.861598014831543,0.66,-0.03,-1.19,1.36
6.873423099517822,0.93,0.32,-1.27,1.6
6.879569053649902,1.34,0.37,-0.78,1.59
6.889510154724121,1.12,0.84,-0.28,1.42
6.900140047073364,0.88,0.88,-0.51,1.34
6.9114320278167725,0.7,0.32,-0.29,0.82
6.923705101013184,0.17,0.06,-0.01,0.18
6.92930793762207,-0.6,0.29,0.2,0.69
6.939871072769165,-1.25,0.26,0.38,1.33
6.949455976486206,-1.4,-0.13,0.57,1.51
6.962235927581787,-1.43,0.88,0.53,1.76
6.974833011627197,-0.06,1.2,-0.69,1.38
6.979071140289307,1.18,-0.07,-0.84,1.45
6.9894208908081055,1.43,-0.12,-0.27,1.46
6.99951696395874,1.55,-0.98,-0.89,2.03
7.011270046234131,0.43,-0.94,-1.44,1.77
7.023491859436035,0.83,-1.08,-1.06,1.72
7.028742074966431,0.6,-0.82,-0.48,1.12
7.039009094238281,0.02,-0.17,-0.31,0.35
7.0496110916137695,-0.32,0.41,-0.14,0.53
7.0608439445495605,-0.27,0.57,-0.16,0.65
7.072537899017334,0.09,0.24,-0.05,0.26
7.078322887420654,0.02,0.17,0.21,0.27
7.088925838470459,-0.32,-0.21,0.72,0.81
7.099379062652588,-1.66,0.62,1.53,2.34
7.110711097717285,-2.24,1.08,0.87,2.63
7.12266206741333,-1.1,-0.55,0.29,1.26
7.128164052963257,-1.3,-0.69,-0.09,1.47
7.138392925262451,-0.73,-0.87,-0.29,1.17
7.149039030075073,-0.43,0.1,0.01,0.44
7.160516977310181,-0.12,0.45,0.22,0.51
7.172836065292358,-0.21,0.14,0.33,0.41
7.178282976150513,-0.91,0.61,0.28,1.13
7.188601970672607,-0.34,0.61,-0.5,0.85
7.19886589050293,0.84,0.24,-1.09,1.39
7.210227966308594,0.34,-0.16,-0.92,0.99
7.222569942474365,0.28,0.11,-0.63,0.69
7.227561950683594,0.05,1.79,-0.14,1.79
7.238059043884277,-0.41,1.21,-1.02,1.63
7.247948169708252,-0.53,-0.75,-1.4,1.67
7.259707927703857,0.08,-1.22,-0.21,1.24
7.27220606803894,0.37,-0.5,0.89,1.08
7.2772979736328125,0.54,-1.53,0.54,1.71
7.288196086883545,-0.06,-2.12,0.02,2.12
7.297624111175537,0.44,0.13,0.34,0.57
7.309618949890137,-0.67,0.06,-0.83,1.06
7.321933031082153,-0.35,0.02,-0.6,0.69
7.327131986618042,-0.97,-0.2,0.44,1.08
7.33721399307251,-1.23,-0.56,1.88,2.31
7.347638130187988,-0.21,-0.52,0.27,0.62
7.359239101409912,0.02,0.32,-0.23,0.39
7.371459007263184,-0.23,0.06,-0.06,0.24
7.37716007232666,-0.62,0.19,-1.01,1.2
7.3870930671691895,-0.66,-0.07,-0.71,0.97
7.397323131561279,-0.02,0.23,-0.94,0.96
7.409052848815918,-0.6,-0.39,-0.69,0.99
7.421011924743652,-0.28,-0.9,0.38,1.01
7.4265570640563965,-1.03,-0.98,1.29,1.91
7.437021970748901,-0.87,0.33,0.16,0.94
7.446778059005737,-0.75,0.25,-0.23,0.82
7.458827018737793,-0.44,0.54,-0.04,0.69
7.471249103546143,0.67,-0.28,0.33,0.79
7.47606897354126,1.24,-0.29,0.25,1.29
7.487138986587524,1.04,-0.13,0.45,1.14
7.496389865875244,0.69,0.24,-0.88,1.14
7.508970022201538,1.97,-0.03,-0.28,1.99
7.520834922790527,0.65,0.21,-1.29,1.45
7.526224136352539,0.92,-0.2,-0.29,0.98
7.536184072494507,1.39,0.44,1.23,1.9
7.5462141036987305,1.35,-1.05,-0.48,1.77
7.558483123779297,1.87,-0.98,0.21,2.12
7.570857048034668,1.16,-0.14,0.32,1.21
7.575731039047241,0.29,0.11,-0.35,0.46
7.586124897003174,-1.03,-0.08,-0.12,1.04
7.595798015594482,-1.34,0.42,-0.3,1.43
7.607921123504639,-1.24,-0.88,-0.12,1.52
7.620555877685547,-1.35,-1.41,0.37,1.98
7.6254260540008545,-1.72,-1.26,0.14,2.13
7.636119842529297,-0.79,-1.26,-0.03,1.48
7.645598888397217,-1.56,-0.59,-1.1,1.99
7.657742977142334,-1.04,-0.79,-0.11,1.31
7.670114994049072,-0.49,-1.15,0.41,1.31
7.6751179695129395,-0.05,-1.21,0.18,1.22
7.6855058670043945,0.12,-1.1,-0.23,1.13
7.695323944091797,0.42,-1.29,-1.06,1.72
7.707617998123169,1.0,-1.49,-0.72,1.93
7.7201690673828125,0.49,-1.25,1.53,2.03
7.725223064422607,-0.34,-1.05,0.99,1.48
7.735485076904297,-0.75,-0.52,0.32,0.96
7.745481967926025,-0.75,-0.16,-0.69,1.03
7.757178068161011,-0.67,-0.24,-2.19,2.3
7.769932985305786,-1.4,2.53,-0.48,2.93
7.7745771408081055,-1.93,7.1,0.16,7.35
7.785211086273193,0.13,4.21,-1.52,4.47
7.794842958450317,-0.11,2.5,0.2,2.51
7.807199001312256,0.08,-1.39,0.74,1.57
7.820279121398926,1.23,-0.73,2.72,3.07
7.824533939361572,2.1,-0.61,-0.3,2.2
7.834971904754639,-1.3,-0.71,-2.74,3.11
7.844434022903442,-0.46,0.2,-1.95,2.01
7.857094049453735,0.89,0.42,0.42,1.07
7.87028694152832,-0.29,-0.64,0.58,0.91
7.8744049072265625,-0.47,0.01,0.38,0.6
7.884767055511475,-1.49,-0.72,-0.4,1.7
7.894331932067871,0.1,0.23,0.34,0.42
7.906867027282715,0.61,-0.42,0.18,0.76
7.920945167541504,0.23,-0.78,-0.55,0.98
7.924002170562744,-0.33,-0.24,-0.68,0.79
7.934722900390625,-0.65,-0.22,-0.23,0.72
7.944153070449829,-0.19,-0.78,0.17,0.82
7.956705093383789,-0.1,-0.3,0.11,0.33
7.969306945800781,-0.18,0.15,-0.09,0.25
7.9733991622924805,-0.09,0.28,-0.09,0.3
7.984469890594482,-0.01,0.41,-0.05,0.41
7.993891000747681,0.13,0.0,-0.2,0.23
8.005818843841553,-0.19,-0.84,-0.41,0.95
8.017766952514648,-0.83,-1.02,0.1,1.31
8.023496150970459,-0.85,0.07,-0.25,0.88
8.034441947937012,-0.56,0.32,-0.36,0.73
8.043300151824951,-0.19,0.5,0.07,0.53
8.055820941925049,-0.14,0.54,0.3,0.63
8.067877054214478,0.44,0.16,0.21,0.51
8.073176860809326,0.67,0.25,0.28,0.76
8.0838041305542,0.64,0.19,-0.03,0.66
8.09354305267334,0.44,0.09,-0.18,0.48
8.105363845825195,0.18,-0.08,-0.19,0.27
8.117500066757202,0.05,-0.16,-0.16,0.23
8.122936010360718,0.06,-0.12,-0.21,0.24
8.133800029754639,0.12,-0.04,-0.18,0.22
8.143110990524292,0.18,0.0,-0.11,0.21
8.15526008605957,0.28,0.01,-0.11,0.3
8.16829800605774,0.31,0.07,-0.01,0.31
8.172563076019287,0.32,-0.13,-0.07,0.35
8.185199975967407,0.35,0.06,0.15,0.38
8.192864894866943,0.25,0.04,-0.28,0.37
8.205559015274048,0.24,-0.07,-0.02,0.25
8.21851897239685,0.19,-0.01,-0.1,0.21
8.22258186340332,0.11,0.0,-0.24,0.26
8.234735012054443,0.0,0.01,-0.06,0.06
8.242169857025146,-0.09,0.01,0.01,0.09
8.2549409866333,-0.05,0.06,-0.12,0.14
8.267269134521484,0.05,0.05,-0.06,0.09
8.271878004074097,0.07,0.04,-0.17,0.18
8.285186052322388,0.07,0.08,-0.23,0.25
8.291949987411499,-0.1,0.12,-0.28,0.32
8.304355144500732,-0.2,0.11,-0.19,0.29
8.316388130187988,-0.24,0.15,-0.23,0.36
8.32167100906372,-0.17,0.18,-0.23,0.33
8.335520029067993,-0.07,0.19,-0.21,0.29
8.342143058776855,0.02,0.21,-0.22,0.3
8.354254961013794,0.07,0.24,-0.26,0.36
8.3663330078125,0.07,0.23,-0.28,0.36
8.371313095092773,0.06,0.22,-0.33,0.4
8.383681058883667,0.04,0.25,-0.37,0.44
8.39123797416687,0.09,0.37,-0.37,0.53
8.403804063796997,0.12,0.51,-0.47,0.7
8.415992975234985,0.13,0.36,-0.22,0.44
8.421051979064941,0.23,0.56,-0.22,0.64
8.434083938598633,-0.04,1.14,-1.0,1.51
8.441164016723633,-0.2,0.64,-0.55,0.86
8.453557014465332,-0.34,-0.22,0.43,0.59
8.465702056884766,-0.57,-0.04,0.54,0.78
8.470793008804321,-0.57,0.66,-0.17,0.88
8.484663009643555,-0.78,1.09,-1.08,1.72
8.490870952606201,-1.06,0.57,-1.0,1.56
8.503509044647217,-1.43,-0.26,-0.2,1.46
8.516216039657593,-2.01,-0.41,0.04,2.05
8.520655155181885,-2.29,-0.22,-0.02,2.3
8.535091876983643,-1.7,-0.09,-0.1,1.7
8.54104995727539,-0.99,-0.21,-0.23,1.03
8.552928924560547,-0.59,-0.21,-0.1,0.63
8.565249919891357,-0.6,0.01,-0.38,0.71
8.57027006149292,-0.83,-0.09,-0.19,0.85
8.583916187286377,-1.13,-0.08,0.08,1.13
8.590527057647705,-1.13,-0.25,0.17,1.16
8.602633953094482,-0.75,-0.32,0.22,0.84
8.614983081817627,-0.35,0.0,0.08,0.35
8.619987964630127,0.08,0.3,-0.21,0.37
8.633871078491211,0.34,0.5,-0.29,0.67
8.640048027038574,0.33,0.61,-0.47,0.83
8.653386116027832,0.36,0.56,-0.56,0.86
8.665532112121582,0.24,0.54,-0.63,0.86
8.66989517211914,0.01,0.64,-0.6,0.87
8.683981895446777,-0.11,0.81,-0.35,0.88
8.689826011657715,-0.43,1.15,-0.42,1.29
8.70259714126587,-0.47,1.28,-0.4,1.42
8.715794086456299,-0.29,0.91,-0.18,0.97
8.719964981079102,-0.07,0.43,-0.04,0.43
8.733652114868164,-0.04,0.45,-0.01,0.45
8.739639043807983,-0.21,0.83,-0.28,0.9
8.752411842346191,-0.37,1.09,-0.54,1.27
8.764616012573242,-0.49,1.06,-0.62,1.32
8.769284009933472,-0.52,0.96,-0.6,1.24
8.785058975219727,-0.34,0.79,-0.79,1.16
8.789307117462158,-0.16,0.6,-0.95,1.13
8.802088975906372,0.12,0.11,-1.09,1.1
8.81426191329956,0.32,-0.05,-0.95,1.0
8.819082975387573,0.48,0.29,-0.7,0.89
8.83437705039978,0.6,0.83,-0.59,1.18
8.83898401260376,0.68,1.15,-0.53,1.43
8.851757049560547,0.68,1.16,-0.56,1.45
8.86413288116455,0.46,1.08,-0.67,1.35
8.868667125701904,0.38,0.58,-0.9,1.13
8.884450912475586,0.16,0.27,-1.07,1.11
8.888622999191284,-0.13,0.3,-0.39,0.5
8.9012131690979,-0.66,1.31,-0.51,1.55
8.913715839385986,-0.85,0.73,-2.03,2.31
8.91894006729126,-0.45,0.25,0.87,1.01
8.935824871063232,-0.79,1.23,1.69,2.23
8.938750982284546,-0.22,1.81,1.14,2.15
8.95100998878479,-0.18,2.38,0.64,2.47
8.962881088256836,-0.51,1.61,-1.85,2.5
8.968246936798096,0.13,0.03,-3.7,3.7
8.98467493057251,0.31,-1.24,-2.25,2.58
8.98824691772461,0.25,-0.23,0.63,0.71
9.000485897064209,0.07,2.41,1.97,3.11
9.01249098777771,0.05,2.85,-0.17,2.85
9.017987966537476,-0.01,0.57,-2.69,2.74
9.034159183502197,-0.11,-0.49,-3.72,3.75
9.037938117980957,-0.32,-0.7,-3.73,3.8
9.050929069519043,-0.37,0.44,-1.55,1.65
9.063579082489014,-0.74,2.33,0.36,2.47
9.068015098571777,-0.65,2.61,1.18,2.93
9.084573030471802,-0.4,2.03,0.65,2.16
9.087607860565186,-0.08,0.96,-0.45,1.06
9.10026502609253,-0.03,0.89,-0.61,1.07
9.112498044967651,-0.39,2.6,-1.43,2.99
9.1176118850708,-0.61,3.8,-2.09,4.37
9.127606868743896,-0.59,3.5,-2.14,4.14
9.138227939605713,-0.4,2.72,-1.61,3.18
9.149477005004883,-0.31,2.25,-2.04,3.05
9.161540985107422,-0.14,2.23,-2.67,3.48
9.167879104614258,-0.04,3.23,-3.2,4.54
9.177540063858032,0.14,4.08,-3.84,5.6
9.187426090240479,0.74,2.46,-3.01,3.95
9.199355125427246,1.17,0.27,-0.5,1.3
9.211811065673828,1.32,1.82,-0.28,2.26
9.217597961425781,1.25,2.85,-3.68,4.81
9.227665901184082,1.59,2.18,-4.93,5.62
9.237246990203857,0.79,-0.03,-3.05,3.15
9.249235153198242,-0.38,-1.13,0.7,1.38
9.26137900352478,-0.76,-0.41,2.29,2.44
9.267438888549805,-1.2,2.71,1.99,3.56
9.276965141296387,-2.98,4.06,1.25,5.18
9.28684401512146,-3.08,1.48,1.42,3.7
9.298774003982544,-3.47,0.0,2.13,4.07
9.311311960220337,-4.46,4.5,-0.09,6.33
9.317255973815918,-1.45,6.02,-2.49,6.67
9.326395988464355,-0.41,0.34,-0.86,1.01
9.336854934692383,-0.13,-2.33,2.3,3.27
9.348347187042236,0.05,1.42,0.19,1.43
9.361317157745361,1.02,4.74,-4.27,6.46
9.36708688735962,1.08,4.6,-2.56,5.37
9.376387119293213,1.25,0.3,0.97,1.61
9.38670015335083,2.35,-2.63,0.31,3.54
9.39865493774414,1.72,-1.92,-2.15,3.35
9.412482976913452,0.31,-0.03,-1.33,1.36
9.416779041290283,0.82,1.53,1.8,2.5
9.426225185394287,0.74,2.43,3.12,4.02
9.43608808517456,0.93,3.4,0.9,3.63
9.448248863220215,1.55,2.97,-4.24,5.4
9.462372064590454,0.59,-1.39,-6.08,6.26
9.466240882873535,-1.01,-5.33,-1.02,5.51
9.47563886642456,-1.91,-5.59,3.35,6.79
9.486236095428467,-2.41,-0.65,3.14,4.01
9.498178005218506,-1.93,5.21,-0.01,5.55
9.512207984924316,-0.64,6.56,-2.67,7.11
9.51568603515625,1.48,2.29,-2.06,3.41
9.525660991668701,2.61,-0.06,-2.26,3.45
9.535673141479492,3.13,-1.1,-2.44,4.11
9.547908067703247,2.99,-0.83,-3.58,4.73
9.562044143676758,1.44,-0.23,-6.5,6.66
9.56531810760498,0.05,0.5,-6.34,6.35
9.575721979141235,0.35,3.51,-3.29,4.82
9.585633039474487,0.96,7.37,-0.8,7.47
9.597568988800049,0.72,1.96,4.39,4.86
9.610651016235352,1.29,-3.59,4.88,6.19
9.615247011184692,-0.22,-5.43,2.91,6.16
9.624742984771729,-0.44,-1.33,1.69,2.19
9.63538408279419,0.5,6.69,-1.55,6.88
9.646919965744019,1.57,8.89,-9.4,13.03
9.658792972564697,2.59,-0.88,-8.23,8.67
9.664667129516602,2.24,-7.27,1.52,7.75
9.674950122833252,1.83,-8.26,7.41,11.24
9.685011863708496,-0.07,-1.76,8.0,8.19
9.696662902832031,-1.26,1.19,4.31,4.64
9.708523035049438,-2.22,0.98,0.64,2.5
9.714366912841797,-1.06,-1.94,-0.58,2.28
9.724999904632568,0.06,-2.73,-0.88,2.86
9.734795093536377,-0.86,-1.64,-0.11,1.85
9.746358871459961,-1.4,0.52,4.45,4.69
9.758584022521973,-1.89,1.83,6.34,6.86
9.764077186584473,-2.69,1.93,2.91,4.4
9.774333000183105,-2.64,1.6,-3.8,4.89
9.784696102142334,-2.36,-0.55,-9.33,9.63
9.796133041381836,-1.94,-4.28,-4.54,6.53
9.808497905731201,-1.25,-3.56,2.35,4.44
9.814114093780518,-1.22,3.85,3.26,5.19
9.824251174926758,-1.99,9.67,0.21,9.87
9.834607124328613,-0.78,3.97,0.14,4.04
9.845826148986816,0.68,-4.79,0.61,4.87
9.857784032821655,0.23,-4.12,-0.89,4.22
9.86361312866211,-0.05,-1.24,-5.35,5.49
9.87396502494812,0.21,-0.94,-3.35,3.48
9.884192943572998,0.72,-2.16,3.49,4.16
9.89567518234253,0.78,-4.05,5.84,7.14
9.908690929412842,0.68,-1.43,5.15,5.38
9.913651943206787,0.78,4.71,0.78,4.83
9.923817157745361,0.9,4.62,-6.84,8.3
9.934010028839111,-0.52,-2.77,-3.56,4.54
9.945451974868774,-0.43,-5.05,2.31,5.56
9.958150863647461,-1.74,-3.51,-0.32,3.93
9.963348865509033,-2.83,-1.04,-6.14,6.84
9.973222017288208,-3.04,-1.5,-3.54,4.9
9.983975887298584,-2.32,-0.8,3.89,4.59
9.995069980621338,-2.77,0.97,7.9,8.42
10.007209062576294,-2.33,2.1,7.49,8.12
10.012778997421265,-1.42,1.89,2.75,3.62
10.023023128509521,-0.5,-2.07,-3.44,4.04
10.033938884735107,0.5,-2.69,-2.39,3.63
10.04464602470398,0.91,0.68,1.4,1.8
10.056703090667725,1.1,2.04,1.06,2.54
10.062469005584717,2.88,-1.31,-0.22,3.17
10.073212146759033,2.16,-5.18,-3.98,6.88
10.082697868347168,-0.6,-2.37,-6.77,7.19
10.094545841217041,-2.19,-1.74,-5.25,5.94
10.106747150421143,-1.13,-0.51,2.66,2.93
10.112184047698975,-2.03,3.75,11.14,11.92
10.122676849365234,-2.66,4.93,11.47,12.76
10.132549047470093,-1.68,-0.11,3.03,3.46
10.14384412765503,-1.22,-3.04,-7.5,8.18
10.155959129333496,-1.15,0.36,-10.65,10.71
10.162230968475342,-1.76,0.85,-4.49,4.89
10.172287940979004,-2.15,0.71,-1.22,2.57
10.182518005371094,-2.82,1.29,1.28,3.35
10.194018840789795,-2.43,-1.89,2.87,4.2
10.206353187561035,-2.32,-1.37,3.89,4.73
10.211641073226929,-1.47,3.56,1.72,4.21
10.222110986709595,-0.12,4.2,-2.95,5.13
10.232179164886475,-0.36,-1.68,-2.44,2.98
10.244059085845947,-0.74,-5.42,2.1,5.85
10.256731986999512,0.09,-2.03,5.83,6.17
10.261291980743408,-2.25,5.59,3.18,6.81
10.272192001342773,-2.55,7.27,-0.91,7.75
10.28157901763916,-2.05,-0.05,-2.77,3.44
10.293692111968994,-2.64,-4.23,-3.78,6.25
10.306529998779297,-2.43,-3.4,-3.34,5.34
10.311004161834717,-1.54,-3.05,-5.96,6.86
10.321579933166504,-1.41,-5.05,-2.3,5.72
10.331379890441895,-0.91,-0.9,1.05,1.65
10.343133926391602,-1.0,3.36,2.11,4.09
10.355669975280762,-1.46,4.99,3.11,6.05
10.360754013061523,-1.25,-0.34,1.47,1.95
10.371089935302734,-3.14,0.51,0.22,3.18
10.381365060806274,-3.97,1.75,-6.44,7.76
10.392963886260986,-2.87,-2.67,-3.11,5.0
10.405642032623291,-2.48,-4.06,5.45,7.23
10.410629034042358,-4.33,-0.18,10.57,11.42
10.421290874481201,-3.98,5.86,6.97,9.93
10.430531024932861,-1.39,0.88,-3.46,3.83
10.442708969116211,-0.08,-3.11,-7.16,7.8
10.455713987350464,-0.02,-0.56,0.05,0.56
10.460131168365479,0.65,-0.35,0.3,0.79
10.470870018005371,0.56,2.34,1.27,2.72
10.480216979980469,2.98,4.78,2.01,5.98
10.492857933044434,7.43,1.5,-2.23,7.9
10.505981922149658,1.64,1.56,-9.33,9.6
10.510313034057617,-2.58,0.93,-12.44,12.73
10.520509004592896,-3.19,-2.98,-6.19,7.57
10.530452966690063,-2.85,-5.63,3.17,7.06
10.541980028152466,-5.6,-2.65,11.38,12.95
10.555542945861816,-7.04,3.03,12.4,14.57
10.559579849243164,-6.78,6.19,3.75,9.91
10.570538997650146,-3.78,1.62,-0.63,4.16
10.580367088317871,0.37,-1.06,-3.24,3.42
10.592190980911255,1.34,0.06,-5.09,5.26
10.60564398765564,1.52,-1.58,-4.47,4.97
10.60948896408081,1.17,-3.64,-1.05,3.96
10.620399951934814,0.39,0.05,2.89,2.91
10.62985610961914,-1.03,7.23,1.19,7.39
10.642009973526001,-0.28,6.02,-2.44,6.5
10.655056953430176,-0.26,3.21,-3.02,4.41
10.65920901298523,-0.16,4.49,-7.43,8.68
10.669785022735596,-2.68,2.17,-8.7,9.35
10.679255962371826,-2.79,-2.82,0.88,4.06
10.69181203842163,-2.47,-5.0,12.44,13.63
10.70522689819336,-0.78,0.66,18.38,18.4
10.709316968917847,-1.34,7.48,5.32,9.27
10.719480037689209,-2.04,3.95,-10.51,11.41
10.72963285446167,-2.18,0.73,-18.2,18.34
10.741106986999512,-0.44,-2.7,-7.88,8.34
10.753950119018555,0.99,-5.8,-0.55,5.9
10.758625030517578,2.47,-7.01,3.26,8.11
10.76932406425476,2.88,-5.15,3.35,6.78
10.778854846954346,-0.05,-1.62,2.08,2.63
10.790935039520264,-1.45,0.0,3.08,3.4
10.803642988204956,-3.62,3.69,5.16,7.3
10.808566093444824,-4.97,5.3,5.1,8.87
10.819185972213745,-4.62,0.95,2.36,5.27
10.82879900932312,-4.46,5.73,-2.72,7.75
10.841009140014648,-3.58,2.46,-12.51,13.24
10.853726863861084,-3.75,-5.41,-8.57,10.8
10.858561038970947,-1.99,-5.27,3.39,6.57
10.869202136993408,-1.15,-2.7,8.08,8.59
10.878056049346924,-3.74,8.64,3.18,9.93
10.890545845031738,-3.08,8.97,-3.0,9.94
10.903694152832031,2.55,-2.95,-2.95,4.88
10.908039093017578,1.38,-1.69,1.02,2.4
10.91887903213501,1.96,-3.01,-0.71,3.66
10.928349018096924,3.28,-5.09,1.97,6.36
10.940309047698975,2.86,1.23,5.43,6.25
10.953346967697144,2.08,4.76,-0.49,5.21
10.95763897895813,-1.3,2.35,-2.94,3.98
10.968482971191406,-2.94,-0.61,4.32,5.26
10.977921962738037,-2.67,-3.15,5.65,6.99
10.990056037902832,-3.54,-0.83,-2.81,4.59
11.002717971801758,-3.57,5.01,-10.74,12.37
11.007441997528076,-3.2,6.15,-11.71,13.6
11.01994800567627,-3.91,1.08,-3.19,5.16
11.027647972106934,-2.85,-3.98,6.78,8.36
11.039904117584229,-2.72,-6.53,14.25,15.9
11.052520990371704,-3.24,0.48,10.55,11.04
11.0574951171875,-3.07,5.34,0.67,6.19
11.069520950317383,-2.25,-0.4,-5.69,6.13
11.077295064926147,-1.82,-2.22,-0.65,2.94
11.08961296081543,-0.54,-2.97,1.99,3.61
11.102394104003906,-0.01,-3.47,-5.42,6.43
11.106903076171875,-0.62,1.09,-7.76,7.86
11.120133876800537,-1.01,0.66,-4.88,5.02
11.126823902130127,-2.07,-0.28,0.86,2.25
11.139245986938477,-2.7,-0.93,4.11,5.0
11.151660919189453,-1.63,0.01,3.88,4.2
11.156599998474121,1.21,3.09,-5.47,6.39
11.170366048812866,3.56,3.64,-13.4,14.33
11.176537990570068,3.09,-0.4,-8.19,8.76
11.1892671585083,2.95,-2.48,-1.45,4.11
11.201763153076172,2.56,-3.56,6.15,7.55
11.20639705657959,1.4,0.04,18.45,18.5
11.220685005187988,-5.34,0.6,20.92,21.59
11.226278066635132,-6.29,0.29,7.45,9.75
11.238645076751709,-6.06,-1.74,-6.33,8.93
11.251788139343262,-5.91,-1.18,-18.92,19.85
11.25617504119873,-3.52,2.9,-11.9,12.74
11.270049095153809,-1.69,-2.26,-4.31,5.15
11.276266098022461,-0.78,-4.47,-2.75,5.3
11.288347005844116,-0.61,-3.88,1.72,4.28
11.301149845123291,-1.75,1.85,2.86,3.82
11.305744171142578,-3.28,9.08,0.73,9.68
11.319350957870483,0.98,9.14,-0.42,9.2
11.325736999511719,1.5,1.3,0.76,2.12
11.337913990020752,-0.65,2.66,-1.16,2.97
11.35030198097229,0.61,-2.97,-1.76,3.5
11.355567932128906,-0.5,-6.43,1.49,6.61
11.369951963424683,0.11,-3.94,5.03,6.39
11.375411033630371,0.77,1.82,3.2,3.76
11.388110160827637,-0.1,3.64,1.15,3.81
11.400620937347412,0.63,1.25,4.32,4.54
11.405642032623291,0.03,-5.2,6.91,8.64
11.420078039169312,-0.63,-5.49,6.02,8.17
11.425348997116089,-0.85,0.13,-0.71,1.11
11.437283992767334,-0.33,1.06,-7.98,8.05
11.449880123138428,-1.59,-0.01,-6.68,6.86
11.455106973648071,-0.96,1.22,0.47,1.62
11.469811916351318,-0.74,0.59,4.41,4.51
11.474956035614014,-1.14,1.36,0.8,1.94
11.487637996673584,0.42,2.01,-7.7,7.96
11.500257015228271,2.66,0.44,-12.53,12.81
11.504836082458496,3.08,-1.5,-4.74,5.84
11.520020961761475,1.64,-3.44,4.38,5.8
11.524729013442993,0.31,0.47,8.96,8.97
11.537822008132935,-1.25,2.92,10.67,11.13
11.550497055053711,-2.69,2.98,5.03,6.43
11.554758071899414,-2.42,5.36,-6.0,8.4
11.569987058639526,-2.56,3.58,-16.42,16.99
11.574444055557251,-2.71,-4.68,-10.09,11.44
11.5873441696167,-1.37,-7.19,4.08,8.37
11.600101947784424,-2.4,-2.1,12.08,12.49
11.604304075241089,-2.6,3.64,9.07,10.11
11.6199209690094,-2.19,7.74,3.51,8.77
11.624181985855103,0.82,-1.14,0.68,1.56
11.636468887329102,1.88,-1.79,-5.42,6.0
11.649206161499023,0.93,2.44,-10.3,10.62
11.65395998954773,-0.88,2.32,-11.94,12.19
11.67006802558899,-1.32,-1.32,-4.99,5.32
11.673961162567139,-1.02,-4.39,2.34,5.07
11.686259984970093,-1.36,-5.41,6.9,8.87
11.699169158935547,-2.05,-0.13,11.03,11.21
11.703801155090332,-1.14,9.04,9.46,13.13
11.71992802619934,2.72,6.03,-0.29,6.62
11.723657131195068,1.67,-4.71,-5.36,7.32
11.735756874084473,-0.2,-3.6,-4.62,5.86
11.748687982559204,0.55,0.54,-3.91,3.98
11.753720045089722,-0.98,4.26,-9.39,10.35
11.769755840301514,-2.92,1.57,-6.7,7.47
11.773776054382324,-2.56,-2.92,5.64,6.84
11.785887002944946,-3.02,-2.68,12.75,13.37
11.798828125,-1.97,2.7,7.67,8.36
11.803267002105713,1.86,5.45,-4.22,7.13
11.820402145385742,1.55,1.81,-7.14,7.52
11.82302713394165,0.36,-1.08,-1.77,2.1
11.835522174835205,-0.27,3.42,-5.85,6.78
11.848812103271484,-2.85,0.67,-14.66,14.94
11.852784156799316,-2.71,-5.6,-7.42,9.68
11.869770050048828,-1.65,-6.55,4.7,8.22
11.87295389175415,-3.14,-2.01,10.94,11.55
11.887548923492432,-4.21,9.19,9.33,13.75
11.90055513381958,-1.04,11.47,4.29,12.29
11.903337955474854,2.4,-4.35,5.51,7.41
11.920525074005127,2.13,-5.39,3.28,6.65
11.922993183135986,2.85,0.27,-4.38,5.23
11.934592962265015,0.55,-0.6,-12.42,12.44
11.94765305519104,-1.5,-2.56,-9.45,9.9
11.952319145202637,-1.5,-4.09,-1.49,4.6
11.970299005508423,-2.27,-1.26,2.02,3.28
11.972409963607788,-0.97,6.54,2.23,6.97
11.984588146209717,-0.63,7.74,5.61,9.58
11.997671127319336,1.19,-4.22,11.4,12.21
12.002213954925537,0.19,-4.38,9.51,10.47
12.020662069320679,2.43,3.33,-5.14,6.58
12.022193908691406,2.26,4.39,-19.16,19.78
12.034736156463623,-0.65,-1.27,-7.98,8.1
12.047916889190674,0.63,-6.6,5.45,8.58
12.051822185516357,-0.41,-5.56,10.08,11.51
12.070049047470093,-1.3,0.18,6.29,6.42
12.071805953979492,0.15,4.59,-1.87,4.95
12.08418893814087,-0.08,6.14,-5.76,8.41
12.097324848175049,-0.32,-1.45,-4.43,4.67
12.102359056472778,-0.63,2.43,-4.38,5.04
12.112004041671753,-0.41,1.12,-6.42,6.52
12.122328996658325,-0.36,-2.67,-0.33,2.71
12.133918046951294,-0.46,-0.91,5.49,5.58
12.146878957748413,-0.57,-1.59,1.77,2.44
12.152024030685425,-0.51,2.0,-1.58,2.59
12.161834001541138,-0.05,3.84,2.37,4.51
12.172091960906982,1.29,0.61,6.64,6.79
12.183629035949707,1.5,-0.53,2.55,3.0
12.196763038635254,1.21,-1.41,-7.22,7.45
12.202193021774292,0.87,-5.58,-6.65,8.72
12.211687088012695,0.87,-3.97,2.76,4.91
12.22141408920288,1.38,0.31,3.84,4.09
12.233577966690063,1.02,0.2,-1.47,1.8
12.24710202217102,0.27,4.25,-1.3,4.45
12.252063035964966,-0.85,4.66,-1.75,5.04
12.26148509979248,-2.28,0.43,-3.88,4.52
12.271509170532227,-1.56,-0.89,0.92,2.01
12.282920837402344,-0.2,-0.74,4.28,4.34
12.29665994644165,1.44,0.46,5.11,5.32
12.30110216140747,2.77,3.13,-1.05,4.3
12.310876846313477,2.53,2.15,-9.36,9.93
12.320889949798584,1.05,-5.13,-6.11,8.04
12.332823991775513,2.18,-6.77,7.22,10.13
12.346397876739502,3.17,-1.17,11.03,11.53
12.351562023162842,4.01,7.46,-4.26,9.48
12.360988140106201,2.29,3.33,-14.11,14.67
12.371232986450195,0.28,-2.87,-3.49,4.52
12.382771968841553,0.04,2.09,5.26,5.66
12.396414041519165,0.2,5.4,-1.49,5.6
12.400511026382446,-0.33,1.1,-1.91,2.22
12.41031789779663,0.04,-4.43,5.41,6.99
12.420083045959473,0.4,-5.49,4.69,7.23
12.431868076324463,1.69,0.0,-3.3,3.7
12.444892883300781,0.56,4.73,-9.4,10.53
12.449779033660889,-0.48,0.77,-3.51,3.62
12.459944009780884,-1.27,-3.22,6.23,7.12
12.470530033111572,-1.96,-1.43,8.35,8.69
12.48183012008667,-1.64,3.23,-1.19,3.81
12.494770050048828,-0.27,1.93,-7.7,7.94
12.499693870544434,-0.98,-0.83,1.0,1.62
12.509976863861084,-1.7,-0.22,7.1,7.3
12.520029067993164,-2.25,-0.33,0.44,2.31
12.531656980514526,-1.43,1.4,-7.91,8.15
12.544615983963013,-0.84,0.44,-3.89,4.0
12.549180030822754,-1.09,-0.27,5.17,5.29
12.559628963470459,-1.12,2.31,6.74,7.21
12.569543838500977,-0.4,5.09,0.65,5.14
12.581358909606934,-0.33,-2.44,-4.88,5.46
12.594365119934082,-1.06,-5.94,-2.18,6.41
12.599082946777344,-0.63,-0.66,-1.06,1.39
12.609274864196777,0.22,2.48,-4.23,4.9
12.619637966156006,0.0,6.35,-0.34,6.35
12.631006002426147,1.26,-0.6,2.71,3.04
12.644031047821045,-0.3,-3.39,2.11,4.0
12.64877986907959,-0.93,2.56,1.48,3.09
12.65904712677002,-0.45,3.9,2.83,4.83
12.669257164001465,1.27,0.51,1.76,2.22
12.681329011917114,1.44,-0.74,-5.25,5.49
12.694468975067139,0.63,-1.35,-7.81,7.95
12.698545932769775,0.48,-1.89,-2.59,3.24
12.708757877349854,0.1,0.38,-0.46,0.6
12.718672037124634,-0.39,2.68,3.0,4.04
12.730738162994385,-1.08,1.11,6.94,7.11
12.74376392364502,-1.46,-1.71,6.96,7.31
12.748497009277344,-1.42,0.25,1.54,2.1
12.758533954620361,-1.0,2.08,-7.47,7.81
12.769218921661377,-1.03,-1.45,-5.38,5.66
12.780552864074707,-0.99,-3.42,1.92,4.04
12.793712139129639,-0.22,0.4,-0.26,0.52
12.797823905944824,1.83,5.65,-8.88,10.68
12.80830717086792,2.25,5.4,-9.7,11.32
12.818505048751831,1.16,0.16,0.0,1.17
12.82995319366455,0.66,-3.71,5.62,6.76
12.843077182769775,-0.25,-5.25,5.33,7.48
12.84764289855957,-0.96,-0.68,4.39,4.54
12.858381032943726,-0.46,5.1,1.37,5.3
12.869088172912598,1.38,0.77,-1.2,1.98
12.880149841308594,1.94,-3.64,0.69,4.18
12.893233060836792,1.29,0.61,-1.16,1.83
12.897336959838867,0.11,-0.14,-4.93,4.93
12.90774393081665,-0.34,-0.02,1.0,1.05
12.917871952056885,-0.53,3.06,2.63,4.06
12.928987979888916,-0.4,3.12,-1.78,3.61
12.941796064376831,-0.99,0.27,-2.1,2.33
12.947003841400146,-1.78,-1.92,-0.78,2.73
12.957609176635742,-2.15,1.08,-2.38,3.38
12.967924118041992,-2.31,-1.0,-2.61,3.62
12.978904008865356,-1.33,-1.1,2.84,3.32
12.991934061050415,-0.05,2.35,2.56,3.47
12.996931076049805,-0.31,2.5,0.2,2.52
13.007323980331421,-1.02,-0.34,2.9,3.09
13.01703405380249,-1.54,-0.49,1.0,1.9
13.029077053070068,-1.63,0.47,-5.46,5.71
13.043132066726685,-1.58,-0.25,-7.61,7.77
13.046593189239502,-1.15,-4.33,-3.78,5.86
13.057240962982178,-2.16,-4.7,1.4,5.35
13.066720962524414,-2.03,1.64,3.96,4.74
13.078719139099121,-0.82,5.74,2.38,6.26
13.09188199043274,1.44,-0.05,1.7,2.22
13.096314907073975,-0.32,1.89,-0.03,1.91
13.106754064559937,-0.7,2.47,-4.77,5.41
13.116580963134766,-1.67,-0.41,-2.82,3.3
13.128300189971924,-1.77,-3.08,6.53,7.43
13.142105102539062,-2.38,-3.83,8.45,9.57
13.145909070968628,-2.46,-3.8,4.26,6.21
13.156579971313477,-1.83,1.99,-2.26,3.52
13.16615915298462,-1.3,6.7,-3.55,7.69
13.178217887878418,-0.64,0.38,1.56,1.72
13.19179391860962,-1.08,-5.94,4.65,7.62
13.19566798210144,-2.46,-0.48,1.22,2.78
13.206165075302124,-0.84,2.37,-11.36,11.63
13.215999126434326,-0.81,-2.47,-11.76,12.04
13.228096008300781,-0.59,-5.84,0.51,5.89
13.24167799949646,-0.42,-3.57,2.85,4.58
13.24570107460022,-0.81,3.77,-0.04,3.85
13.256019115447998,-1.28,8.15,-0.02,8.24
13.265576839447021,-0.78,-0.34,3.57,3.67
13.277596950531006,-2.18,-1.71,4.52,5.3
13.292049884796143,-1.15,4.15,-2.87,5.17
13.29535698890686,0.13,5.55,-9.36,10.88
13.305700063705444,-1.19,0.92,-1.79,2.33
13.315102100372314,-1.38,-3.9,5.7,7.04
13.327396869659424,-2.63,-1.12,5.06,5.81
13.34156608581543,-1.9,6.76,-4.91,8.56
13.344841003417969,-0.23,1.33,-9.7,9.79
13.356061935424805,-1.69,-3.07,1.52,3.81
13.365078926086426,-1.72,-2.81,7.63,8.31
13.37756896018982,-1.0,-0.12,2.74,2.91
13.391355037689209,1.97,2.72,-6.93,7.7
13.394685983657837,0.07,-2.11,-4.88,5.31
13.405192852020264,-0.69,-1.72,6.81,7.05
13.41491413116455,-1.27,4.37,7.52,8.78
13.426882982254028,0.22,-2.05,-0.54,2.13
13.440778970718384,0.06,-4.87,-3.99,6.29
13.44467306137085,-0.75,0.02,0.11,0.75
13.4549241065979,-1.84,7.56,0.81,7.82
13.464573860168457,-2.05,1.8,0.73,2.82
13.476550102233887,-1.29,-6.23,3.27,7.15
13.491006851196289,-1.43,-5.14,2.08,5.72
13.494202136993408,-0.48,1.24,-4.79,4.97
13.504574060440063,-0.89,2.4,-7.73,8.14
13.514034032821655,-1.41,0.37,-0.18,1.46
13.526391983032227,-1.64,3.87,5.05,6.57
13.540246963500977,0.2,-1.64,2.24,2.78
13.543792963027954,-0.8,-6.51,0.61,6.58
13.554357051849365,-0.77,-1.01,0.55,1.38
13.564178943634033,-0.08,6.49,-3.04,7.16
13.576438903808594,-0.05,8.02,-1.07,8.09
13.590405941009521,2.09,-1.67,4.2,4.97
13.593894958496094,1.97,-4.57,-1.32,5.14
13.604789972305298,-0.17,1.07,-9.63,9.69
13.61416506767273,-2.44,3.36,-10.6,11.38
13.62577486038208,-3.29,1.86,-1.52,4.07
13.639952182769775,-3.18,-2.29,7.41,8.38
13.643229961395264,-2.66,-3.07,11.35,12.05
13.654000997543335,-0.75,3.11,4.73,5.71
13.663558006286621,2.44,1.76,-6.12,6.81
13.675629138946533,-0.44,-0.71,-2.68,2.8
13.689911842346191,-2.22,6.51,1.5,7.03
13.693096160888672,-3.21,0.06,-5.27,6.17
13.704235076904297,-2.96,-6.97,-2.58,7.99
13.713032007217407,-3.68,-1.16,5.13,6.41
13.725822925567627,-4.32,4.04,1.36,6.06
13.73979902267456,-1.75,-2.06,1.11,2.92
13.742866039276123,0.34,-4.33,3.79,5.76
13.753897190093994,1.07,2.97,-2.79,4.21
13.763061046600342,5.71,5.68,-13.24,15.49
13.775128841400146,1.58,-1.4,-10.23,10.44
13.789654970169067,-0.13,-6.26,3.1,6.98
13.79265308380127,-0.1,-1.1,9.17,9.23
13.803416013717651,-2.63,1.99,7.62,8.3
13.812854051589966,-3.57,5.08,8.86,10.81
13.824815034866333,-1.86,3.11,8.29,9.04
13.839198112487793,-0.89,-3.11,0.75,3.32
13.84221887588501,1.34,-0.51,-9.98,10.08
13.85346007347107,-0.5,3.06,-15.32,15.63
13.862154960632324,-2.16,-0.85,-9.13,9.42
13.874948978424072,-1.86,-4.19,-1.88,4.95
13.88940715789795,-0.75,-5.28,3.27,6.25
13.892053127288818,-1.17,2.08,7.69,8.05
13.903074026107788,-0.6,11.79,5.85,13.17
13.911922931671143,1.73,3.27,2.66,4.55
13.924506187438965,-0.08,-5.12,-2.9,5.88
13.938554048538208,-1.35,-5.16,-3.33,6.28
13.94169807434082,-2.38,-3.47,-1.27,4.39
13.953959941864014,-3.06,-2.92,2.4,4.86
13.962119102478027,-3.88,5.09,7.48,9.84
13.974294185638428,-2.13,7.15,7.54,10.6
13.989017009735107,0.27,-2.34,1.88,3.01
13.99167013168335,2.49,0.1,-8.48,8.83
14.003887176513672,2.38,-4.34,-10.42,11.53
14.011467933654785,0.97,-5.98,-1.88,6.34
14.023859977722168,-0.08,-2.63,1.29,2.93
14.038762092590332,-0.94,-3.55,1.9,4.13
14.041285037994385,-1.09,1.67,7.86,8.1
14.054131984710693,-0.71,12.4,6.02,13.8
14.06113600730896,3.4,-0.17,-3.28,4.72
14.073498010635376,2.76,-1.22,-9.53,9.99
14.087485074996948,2.0,7.4,-8.77,11.64
14.091228008270264,1.8,-0.3,-6.93,7.16
14.10298490524292,0.44,-6.04,4.18,7.35
14.111114978790283,-0.24,-5.23,13.81,14.76
14.123257160186768,-2.13,6.16,9.82,11.78
14.137383937835693,-1.34,10.41,-6.1,12.13
14.140630006790161,-1.42,1.93,-14.2,14.4
14.153900146484375,-2.08,-3.02,-4.22,5.59
14.160574913024902,-1.48,-5.76,1.89,6.24
14.173209190368652,-2.14,-4.72,2.52,5.76
14.187716007232666,-2.17,3.97,-0.5,4.55
14.190454959869385,-1.92,6.61,-4.92,8.46
14.203434944152832,-0.8,-5.76,3.19,6.63
14.210319995880127,-0.78,-7.18,8.45,11.11
14.223031044006348,-1.6,-3.79,5.07,6.52
14.237120151519775,-0.33,1.11,-4.24,4.39
14.240364074707031,-1.68,2.63,-6.79,7.47
14.253418922424316,-2.3,3.27,3.34,5.2
14.259972095489502,0.07,11.8,6.32,13.38
14.272516012191772,5.45,3.88,-0.5,6.7
14.286696910858154,2.43,-7.96,-1.31,8.42
14.289983987808228,0.92,-7.26,-2.49,7.73
14.304081916809082,1.59,-1.1,-7.35,7.6
14.30983591079712,-1.79,0.9,-9.42,9.63
14.322064876556396,-1.95,-4.11,1.81,4.89
14.336557865142822,-1.48,0.16,11.12,11.21
14.339545011520386,-3.39,8.47,6.75,11.34
14.354346990585327,-1.68,3.02,-4.02,5.3
14.359596967697144,-1.08,0.0,-13.89,13.93
14.371920108795166,0.17,-2.46,-6.15,6.62
14.38588285446167,0.85,-5.66,4.21,7.1
14.38942003250122,0.52,-1.4,9.48,9.59
14.403286933898926,-1.43,11.06,7.48,13.42
14.409258842468262,-0.72,8.71,1.16,8.81
14.422075986862183,-0.56,-7.66,-2.27,8.0
14.436531066894531,-1.66,-6.89,-0.08,7.08
14.439550876617432,-1.82,-2.01,-3.46,4.39
14.454015970230103,-1.98,0.63,-10.26,10.46
14.45934009552002,-2.74,1.25,-5.09,5.91
14.471456050872803,-2.21,-0.27,4.23,4.78
14.48580002784729,-2.23,0.11,8.66,8.94
14.488872051239014,-3.05,7.83,6.57,10.66
14.503846168518066,0.53,11.16,-2.82,11.52
14.508763074874878,1.92,-4.79,-6.31,8.15
14.52134895324707,-0.03,-6.52,2.05,6.83
14.535593032836914,0.93,-0.44,-0.02,1.02
14.53856611251831,0.65,-1.17,-10.0,10.08
14.553215026855469,-0.59,-5.48,-2.53,6.06
14.558504104614258,-0.85,0.28,5.65,5.72
14.571591854095459,-1.4,1.58,2.26,3.09
14.585968971252441,-1.6,-3.9,-5.14,6.64
14.588819026947021,-0.97,-0.63,-2.74,2.97
14.60387396812439,1.15,2.23,1.17,2.76
14.608521938323975,0.8,-0.35,4.98,5.05
14.620589971542358,0.47,4.86,4.19,6.43
14.634964942932129,0.51,6.48,-0.7,6.53
14.637995958328247,-0.91,-0.03,-7.98,8.03
14.654219150543213,-1.59,-5.21,-3.17,6.3
14.657994031906128,-1.28,-7.23,9.48,11.99
14.670358180999756,-2.72,0.77,14.53,14.8
14.684900045394897,-4.31,14.75,3.63,15.78
14.687788009643555,-0.19,0.49,-3.7,3.73
14.704221963882446,0.38,-7.69,-7.7,10.88
14.70772409439087,0.95,-0.52,-6.27,6.36
14.720242977142334,2.35,-4.46,-8.5,9.88
14.734804153442383,2.34,-5.37,-5.26,7.87
14.737529993057251,2.47,-1.07,-0.58,2.75
14.753419876098633,-0.06,1.89,-0.3,1.91
14.75745701789856,-3.32,4.99,6.61,8.92
14.769978046417236,-4.28,2.79,17.85,18.56
14.785079956054688,-4.79,2.36,17.9,18.67
14.78781795501709,-1.98,-1.58,1.38,2.88
14.804885864257812,2.72,1.53,-17.48,17.75
14.807484149932861,1.8,11.14,-26.19,28.51
14.819981098175049,0.75,3.08,-13.9,14.25
14.834693908691406,0.64,-5.52,-1.48,5.75
14.837043046951294,-0.17,-6.4,5.73,8.59
14.853732109069824,-2.0,-5.12,12.09,13.28
14.856876850128174,-3.47,2.05,7.77,8.75
14.869494915008545,-3.25,6.01,1.67,7.03
14.884055137634277,-0.4,-2.89,1.71,3.38
14.886858940124512,-0.93,-4.22,3.47,5.54
14.904561042785645,-0.79,3.81,4.07,5.63
14.906600952148438,4.42,5.64,-6.16,9.44
14.918829917907715,2.83,2.13,-11.51,12.04
14.933722019195557,0.54,0.67,-4.42,4.5
14.93672800064087,0.34,-3.91,-4.5,5.97
14.954432010650635,-1.22,-6.8,-5.45,8.79
14.956590175628662,-0.99,-7.5,1.59,7.73
14.968577861785889,-1.39,-3.9,11.79,12.49
14.983418941497803,-3.32,12.45,10.45,16.58
14.986277103424072,-1.14,22.35,2.58,22.52
15.004510879516602,1.99,-4.21,-1.94,5.04
15.006167888641357,1.93,-9.73,-4.23,10.78
15.018043994903564,3.24,-3.44,-0.29,4.73
15.032615184783936,2.08,0.45,-2.35,3.17
15.035804986953735,-0.48,0.45,-6.46,6.49
15.053603172302246,-1.45,5.12,-8.54,10.06
15.055829048156738,-2.59,6.28,-10.76,12.72
15.068161010742188,-1.69,-6.61,-5.57,8.8
15.082929134368896,-0.89,-8.39,8.25,11.8
15.085967063903809,-2.3,-2.66,18.7,19.02
15.104310035705566,-1.72,5.57,10.62,12.11
15.105756044387817,0.15,8.71,-0.97,8.76
15.117578983306885,5.86,-3.56,-5.87,9.02
15.13255786895752,1.73,-0.95,-8.36,8.58
15.13537311553955,0.49,-4.42,-0.04,4.44
15.154536962509155,-0.56,-3.78,5.07,6.34
15.155945062637329,-1.68,7.92,0.8,8.13
15.166969060897827,-1.4,10.52,-10.91,15.22
15.181511878967285,-2.5,1.88,-7.44,8.07
15.18546199798584,-2.12,-2.05,1.96,3.54
15.195805072784424,-1.07,-5.91,0.35,6.01
15.20539903640747,-0.38,-7.66,-0.51,7.68
15.217012882232666,0.76,-5.48,4.55,7.16
15.231796026229858,1.36,-0.13,5.87,6.02
15.235103130340576,0.62,5.22,4.56,6.95
15.245294094085693,0.44,9.39,4.19,10.29
15.255000114440918,-0.59,1.34,-3.18,3.5
15.266957998275757,-1.2,-0.75,-9.35,9.45
15.281813144683838,-0.86,0.56,-7.25,7.32
15.285151958465576,-0.63,-5.84,-2.94,6.56
15.294900894165039,-1.02,-6.37,7.14,9.62
15.30507516860962,-1.41,1.03,12.85,12.96
15.316442966461182,-0.99,3.42,9.06,9.73
15.330857992172241,-0.43,-3.5,1.56,3.85
15.334436893463135,-0.89,-3.42,-7.46,8.25
15.344419956207275,-1.12,4.74,-15.71,16.44
15.354529857635498,-3.66,4.53,-14.87,15.96
15.366485118865967,-1.81,-2.63,-4.03,5.14
15.381088018417358,-1.12,-3.27,4.47,5.65
15.384274005889893,-0.15,-1.6,14.05,14.14
15.394582033157349,0.75,6.88,11.82,13.69
15.404301166534424,2.16,5.18,2.8,6.27
15.416482925415039,3.19,-5.85,0.41,6.67
15.431487083435059,-0.28,-3.44,3.75,5.09
15.434225082397461,-0.25,1.13,3.24,3.44
15.444301128387451,1.66,-2.72,-6.25,7.01
15.453940868377686,0.39,-4.41,-9.36,10.35
15.465893030166626,0.14,3.71,-5.4,6.55
15.480839014053345,-1.73,8.29,-4.9,9.78
15.483675956726074,-2.56,3.59,0.43,4.43
15.494003057479858,-1.54,-3.06,7.26,8.02
15.503713130950928,0.38,-1.72,4.93,5.23
15.515477180480957,3.74,-1.76,-7.63,8.67
15.530205011367798,0.15,-1.14,-10.12,10.18
15.533331871032715,-0.71,-0.18,1.54,1.7
15.543971061706543,-2.46,4.24,7.66,9.09
15.553773880004883,-3.48,0.31,6.3,7.2
15.565701961517334,-3.51,-0.99,2.9,4.65
15.580085039138794,-3.43,3.51,-7.37,8.85
15.583227157592773,-1.16,-6.18,-11.44,13.05
15.593449115753174,-0.61,-7.92,-0.65,7.97
15.603518009185791,0.64,-4.29,5.85,7.28
15.61506700515747,-0.38,0.51,3.85,3.9
15.629619121551514,-0.8,12.83,2.16,13.03
15.632810115814209,3.05,8.44,5.5,10.52
15.643278121948242,1.17,-8.07,9.8,12.74
15.653602123260498,1.39,-5.22,3.13,6.24
15.664875984191895,2.66,0.16,-8.72,9.11
15.67943000793457,-0.03,1.64,-11.1,11.22
15.682598114013672,-1.77,7.31,-2.9,8.06
15.693241119384766,-2.42,4.9,-0.85,5.53
15.703160047531128,-1.88,-5.34,1.93,5.98
15.714495182037354,-1.58,-1.19,6.07,6.38
15.729182004928589,-0.07,3.39,1.45,3.68
15.732228994369507,2.3,-3.9,-1.13,4.66
15.742730140686035,1.57,-6.09,1.19,6.4
15.75261116027832,1.12,0.83,-3.02,3.32
15.764480113983154,-0.96,2.16,-10.22,10.48
15.779292106628418,-2.14,1.26,-7.26,7.67
15.782380104064941,-0.37,6.25,-1.54,6.44
15.792389869689941,-0.28,2.16,-3.33,3.97
15.802885055541992,-0.57,-6.14,0.67,6.2
15.813968181610107,-0.97,-0.8,0.83,1.5
15.829244136810303,-0.57,5.43,0.18,5.46
15.831727981567383,-0.01,5.15,6.27,8.11
15.842367172241211,2.75,-6.65,10.93,13.08
15.852162837982178,2.1,-5.96,7.23,9.6
15.86384105682373,2.69,3.09,-4.66,6.2
15.879009008407593,-0.91,3.23,-14.73,15.1
15.881563186645508,-2.79,-5.58,-7.28,9.58
15.892258167266846,-2.06,-6.25,4.19,7.8
15.901527881622314,-3.61,-2.76,9.0,10.08
15.913619995117188,-5.82,8.03,1.95,10.1
15.928144931793213,-2.69,2.97,-1.77,4.38
15.931394100189209,0.71,-6.92,0.77,6.99
15.941704034805298,0.1,2.63,-1.74,3.15
15.951403141021729,0.79,5.24,-2.11,5.7
15.963254928588867,-0.86,1.06,5.33,5.5
15.977694988250732,0.15,0.71,7.68,7.71
15.981014013290405,0.43,-4.11,1.62,4.43
15.991466999053955,1.22,1.3,-8.64,8.82
16.001116037368774,-2.01,8.15,-14.47,16.72
16.012755870819092,-1.9,-1.45,-5.46,5.96
16.029069900512695,-1.24,-5.73,3.99,7.09
16.030826091766357,-2.13,-2.88,6.66,7.56
16.04154396057129,-2.3,3.89,1.68,4.82
16.050796031951904,-0.77,2.16,-3.18,3.92
16.06277084350586,0.09,-5.75,1.95,6.07
16.077807903289795,-0.66,-2.89,4.51,5.39
16.08040189743042,0.55,-1.68,0.76,1.92
16.09069800376892,-0.49,-5.48,0.31,5.51
16.10030198097229,-1.54,-2.87,6.18,6.98
16.112506866455078,-2.92,5.46,7.46,9.69
16.127735137939453,-0.71,7.15,-0.49,7.2
16.130061149597168,0.79,-4.44,-9.34,10.37
16.14069890975952,-0.96,-3.07,-6.63,7.36
16.15065288543701,2.14,0.38,-1.45,2.61
16.162134170532227,1.68,2.31,-4.05,4.95
16.177806854248047,-1.09,-0.57,0.25,1.25
16.17984914779663,-2.36,-1.4,8.66,9.08
16.19041109085083,-4.05,10.15,9.38,14.4
16.199769973754883,0.29,1.3,-3.21,3.47
16.212031841278076,1.35,-1.29,-14.54,14.65
16.227653980255127,1.49,-0.38,-8.62,8.75
16.229598999023438,2.07,-2.28,-1.76,3.54
16.24013614654541,-0.05,0.7,1.05,1.26
16.24974489212036,-1.52,7.31,4.13,8.53
16.261945009231567,-1.29,3.1,4.76,5.82
16.27725315093994,-1.03,-2.87,0.09,3.05
16.279693126678467,1.41,-6.62,-4.27,8.0
16.28986692428589,2.32,-1.1,-2.31,3.45
16.29975414276123,1.71,2.37,-1.09,3.11
16.31178903579712,-0.3,-0.69,3.1,3.19
16.327648162841797,-0.99,-0.49,6.2,6.29
16.32935094833374,-0.72,2.38,3.48,4.27
16.339748859405518,0.15,2.25,-6.96,7.31
16.349234104156494,-0.85,-2.16,-3.49,4.19
16.3610680103302,0.2,-1.16,8.48,8.56
16.376235008239746,-0.77,1.31,9.27,9.39
16.378844022750854,-0.66,-1.41,2.63,3.05
16.389731884002686,-0.24,-4.87,-4.56,6.67
16.39870595932007,-0.17,-3.28,-5.9,6.75
16.411284923553467,0.83,-0.05,-4.52,4.59
16.426720142364502,1.9,-0.47,-3.46,3.97
16.428570985794067,0.61,2.13,2.94,3.68
16.43927001953125,2.02,-0.74,3.95,4.49
16.448806047439575,1.4,-1.77,0.04,2.25
16.46076798439026,0.12,4.05,-1.93,4.48
16.47640609741211,-1.7,6.5,0.55,6.74
16.47841215133667,-0.98,-1.71,4.21,4.64
16.48898410797119,0.47,-0.21,1.31,1.4
16.498555183410645,1.88,10.67,-12.14,16.27
16.51064705848694,-0.7,7.63,-18.25,19.79
16.526505947113037,-1.15,-3.66,-2.34,4.49
16.528226852416992,-0.73,-8.36,10.03,13.07
16.539074897766113,-2.56,-4.97,11.41,12.7
16.54827117919922,-2.26,0.9,1.55,2.88
16.56040096282959,-0.09,5.74,-8.37,10.14
16.575570106506348,2.0,5.9,-9.99,11.77
16.57785701751709,1.16,-3.26,-1.68,3.84
16.588412046432495,-0.86,-0.19,0.41,0.97
16.59772801399231,-1.45,-2.08,-6.97,7.41
16.610300064086914,-0.96,-7.89,-2.35,8.28
16.625433921813965,-0.7,-6.1,10.19,11.89
16.627737045288086,-0.81,3.3,15.27,15.64
16.63922691345215,0.93,6.97,6.1,9.3
16.6478590965271,3.22,-7.56,1.54,8.36
16.659900188446045,3.51,-4.35,-2.93,6.31
16.6753511428833,2.01,3.22,-4.14,5.61
16.677349090576172,-1.39,1.87,1.72,2.89
16.68772602081299,-1.06,0.74,5.87,6.01
16.697203159332275,-1.89,3.77,2.76,5.04
16.709381103515625,-1.62,-0.31,-6.58,6.78
16.72474503517151,-1.76,-4.37,-5.09,6.93
16.727012157440186,0.53,0.38,0.98,1.17
16.737882137298584,0.79,2.61,-4.78,5.5
16.747200965881348,-0.45,6.69,-5.18,8.47
16.759355068206787,-0.38,2.25,-1.07,2.52
16.774683952331543,-0.42,-6.94,4.28,8.16
16.77678918838501,-1.5,-6.38,10.77,12.6
16.789318084716797,-2.38,1.54,6.62,7.2
16.796990871429443,0.49,4.92,-7.53,9.0
16.80941605567932,0.51,-1.79,-16.31,16.41
16.826097011566162,-2.5,4.62,-6.56,8.4
16.827533960342407,-0.86,-1.88,-1.49,2.54
16.838659048080444,-0.85,-6.02,3.8,7.16
16.846978187561035,-1.0,-2.22,13.76,13.97
16.858858108520508,-1.66,7.12,13.02,14.93
16.874462127685547,-0.22,8.01,2.94,8.53
16.876235961914062,4.36,-0.68,-8.32,9.41
16.889103889465332,0.87,-4.67,-10.21,11.26
16.89613699913025,0.91,-7.33,-1.3,7.49
16.90856099128723,1.58,-5.45,2.17,6.07
16.924458980560303,1.4,-0.85,-2.86,3.29
16.926180839538574,0.23,0.27,-2.06,2.09
16.939411163330078,-0.64,4.22,3.11,5.28
16.945868968963623,0.58,3.67,4.46,5.8
16.958590030670166,-0.17,-1.31,-1.84,2.26
16.97563886642456,-0.1,-0.18,-8.78,8.78
16.97702693939209,0.19,-2.56,-7.4,7.83
16.987831115722656,0.64,-3.69,-0.69,3.8
16.996129035949707,0.59,1.6,-0.04,1.7
17.008245944976807,0.89,6.68,-3.36,7.53
17.024559020996094,0.24,8.1,1.47,8.23
17.02603816986084,0.69,-0.93,7.87,7.95
17.038563013076782,-1.55,-3.25,10.92,11.49
17.045358180999756,-0.6,5.06,4.83,7.02
17.057639122009277,4.12,10.21,-14.96,18.57
17.073491096496582,1.53,-0.25,-12.64,12.73
17.075350999832153,0.86,-9.57,7.73,12.33
17.088690996170044,-0.15,-6.95,16.0,17.44
17.095027923583984,-2.06,0.67,4.96,5.41
17.10784912109375,-1.57,-0.46,-8.55,8.7
17.123867988586426,-1.86,-5.98,-7.58,9.83
17.12524700164795,-0.73,0.76,-1.8,2.08
17.138115882873535,0.66,9.44,-3.58,10.11
17.14480996131897,-0.86,4.32,-1.63,4.69
17.157235145568848,1.84,-9.3,9.11,13.14
17.172914028167725,3.84,-1.91,14.6,15.21
17.175067901611328,1.78,8.84,5.43,10.52
17.189475059509277,3.66,-0.94,-6.23,7.28
17.19485306739807,0.6,-1.16,-10.84,10.91
17.207432985305786,-1.18,0.83,-8.66,8.77
17.223217964172363,-1.2,-5.09,-4.73,7.05
17.224740028381348,-0.71,-3.08,0.58,3.21
17.239470958709717,-0.22,4.36,2.4,4.98
17.244329929351807,-0.57,6.64,1.7,6.87
17.25687599182129,-0.48,-3.61,4.28,5.61
17.27275800704956,-1.28,-5.73,5.53,8.06
17.2742760181427,-1.13,0.64,1.29,1.83
17.28958797454834,-0.6,5.53,-7.75,9.53
17.294137001037598,-1.25,2.37,-5.56,6.17
17.306751012802124,-1.53,-0.74,1.44,2.22
17.323102951049805,-1.82,-0.04,-0.13,1.82
17.32451105117798,0.27,-0.65,-5.62,5.66
17.33961009979248,1.08,-1.85,-1.76,2.77
17.344150066375732,-0.31,1.59,4.08,4.38
17.356411933898926,0.21,7.03,1.94,7.29
17.37215518951416,1.31,-0.38,-5.84,5.99
17.373669147491455,-0.17,-3.51,-4.67,5.84
17.390187978744507,-1.31,-1.98,-1.65,2.89
17.39358901977539,-2.44,-2.06,0.41,3.21
17.405663013458252,-3.04,5.01,5.69,8.16
17.421663999557495,-2.04,4.68,5.52,7.51
17.423439979553223,-1.1,-3.61,1.85,4.2
17.439568042755127,-1.5,-5.69,-2.28,6.31
17.443294048309326,-0.15,-1.08,-3.84,3.99
17.455857038497925,-0.12,1.25,-5.37,5.51
17.471755981445312,-1.01,-5.48,0.93,5.64
17.473328113555908,-1.4,-1.72,9.78,10.02
17.48960018157959,-2.03,5.58,9.41,11.12
17.493088960647583,-0.54,1.49,2.17,2.68
17.505353927612305,-0.12,-0.69,-5.46,5.5
17.521095037460327,-0.34,-3.31,-8.64,9.25
17.52284288406372,-1.01,-3.36,-2.31,4.2
17.539411067962646,-0.31,1.79,0.09,1.81
17.542924880981445,-1.07,2.65,1.04,3.04
17.555135011672974,-0.57,5.06,6.52,8.27
17.57106900215149,0.16,-0.41,8.68,8.69
17.57260513305664,-1.03,-4.1,5.01,6.55
17.58951497077942,-0.01,3.69,-4.26,5.63
17.592463970184326,0.36,-0.04,-15.05,15.05
17.60453987121582,-1.97,-1.33,-8.12,8.46
17.620357990264893,-0.21,-0.33,0.33,0.51
17.6221981048584,-0.66,-0.32,-2.42,2.52
17.6401469707489,-0.59,0.44,0.18,0.75
17.64206314086914,1.11,3.78,1.52,4.22
17.655418872833252,0.46,2.07,-1.83,2.8
17.671310901641846,-1.33,-2.88,3.55,4.76
17.67283296585083,-2.1,-3.35,7.48,8.46
17.689664840698242,-3.6,4.31,4.45,7.16
17.6924409866333,-1.33,5.63,-7.03,9.1
17.704236030578613,-0.61,-3.26,-6.6,7.38
17.72007417678833,0.28,-2.76,1.49,3.14
17.72172498703003,1.43,0.31,0.86,1.69
17.73205304145813,-0.26,-2.05,-2.41,3.17
17.74215793609619,-0.47,-0.28,-1.67,1.75
17.75374412536621,0.15,1.77,-0.88,1.98
17.769636154174805,-0.72,-1.75,5.17,5.5
17.77173089981079,-1.06,5.59,6.74,8.82
17.791912078857422,0.24,5.26,-0.23,5.27
17.793280124664307,-0.07,-1.33,-12.98,13.04
17.804121017456055,-0.73,-6.21,-9.46,11.33
17.8197660446167,0.77,-6.01,0.47,6.07
17.82170796394348,0.19,-6.12,4.63,7.67
17.839704990386963,-0.5,-0.26,5.55,5.57
17.84133005142212,-0.96,17.49,-0.29,17.51
17.853580951690674,0.73,8.12,-8.67,11.9
17.869678020477295,-0.21,-7.15,-3.76,8.08
17.87124013900757,-0.25,-6.72,6.47,9.33
17.89011287689209,-1.61,-3.81,8.27,9.24
17.891510009765625,-1.83,1.49,-1.58,2.83
17.90305519104004,-0.4,6.05,-11.6,13.08
17.919557094573975,-1.04,0.18,-3.53,3.68
17.921069145202637,-1.11,4.75,6.55,8.16
17.940232038497925,0.33,0.28,6.14,6.15
17.941608905792236,-0.54,-4.93,1.58,5.2
17.952481031417847,-0.34,4.24,-2.46,4.91
17.96876096725464,1.02,-0.05,-5.72,5.81
17.970566987991333,0.01,-4.83,0.32,4.84
17.99013090133667,-0.32,2.89,2.73,3.98
17.991551876068115,-1.87,1.8,0.77,2.7
18.002749919891357,-2.35,-3.72,4.2,6.08
18.019908905029297,-2.35,3.24,6.4,7.54
18.021349906921387,0.95,-0.07,-1.92,2.14
18.039254188537598,0.65,-3.69,-5.67,6.79
18.04064106941223,1.0,4.46,-4.97,6.75
18.052088022232056,1.82,-1.85,-4.77,5.43
18.068262100219727,-0.79,0.68,-0.56,1.18
18.0700421333313,-0.42,5.71,1.34,5.88
18.0798180103302,-0.7,0.52,2.89,3.01
18.090155124664307,0.32,-5.62,5.88,8.14
18.10184907913208,-0.13,-4.22,5.28,6.76
18.117935180664062,0.16,1.0,-0.97,1.4
18.119709014892578,-0.52,-0.31,-5.18,5.21
18.139377117156982,-0.53,-0.5,-1.66,1.81
18.140777111053467,-0.46,5.35,-4.83,7.22
18.151440143585205,-0.66,2.65,-6.16,6.73
18.167305946350098,0.13,-0.07,0.24,0.28
18.16971707344055,1.31,-2.73,2.65,4.02
18.189491987228394,0.59,-0.72,2.35,2.52
18.19090700149536,-0.48,-3.03,3.93,4.98
18.201050996780396,-0.27,-0.47,2.75,2.8
18.2176570892334,1.18,-1.32,-3.3,3.74
18.21915602684021,-0.18,-1.98,-2.81,3.44
18.239441871643066,-1.12,7.55,1.2,7.72
18.240868091583252,-0.59,4.96,-2.38,5.53
18.250944137573242,0.04,-2.88,-0.27,2.89
18.268038988113403,0.72,-5.27,2.46,5.86
18.26942014694214,0.09,-3.36,-0.51,3.39
18.28961205482483,-0.41,-2.43,-1.57,2.92
18.290968894958496,0.0,0.41,1.13,1.2
18.30113697052002,0.16,2.72,-1.42,3.07
18.318165063858032,0.24,7.67,-5.45,9.41
18.319653034210205,-0.76,5.64,-2.56,6.24
18.339514017105103,-1.07,-3.09,3.98,5.15
18.340873956680298,-1.7,-3.57,5.0,6.37
18.35042405128479,-2.16,1.56,1.69,3.15
18.36646795272827,-0.15,4.47,-0.48,4.49
18.368710041046143,1.83,-1.09,2.81,3.52
18.378579139709473,2.98,-2.69,1.76,4.38
18.388718128204346,1.76,-2.81,-1.92,3.83
18.400418043136597,-0.17,0.44,-2.66,2.7
18.41664695739746,-0.84,1.59,-1.35,2.24
18.41842794418335,-0.86,1.74,0.59,2.02
18.428420066833496,-0.66,1.15,0.17,1.33
18.43828296661377,-0.78,1.42,-3.89,4.21
18.450203895568848,-0.56,-2.0,-2.58,3.31
18.466503143310547,-0.22,0.55,0.89,1.06
18.46823215484619,0.49,-4.51,3.2,5.55
18.478114128112793,0.97,-0.6,6.43,6.53
18.490228176116943,2.53,2.94,-0.49,3.9
18.49992799758911,2.64,-5.36,-5.82,8.34
18.516106128692627,0.94,1.22,-0.2,1.55
18.517910957336426,0.65,8.53,-2.94,9.04
18.527907848358154,0.17,-2.25,-5.83,6.25
18.53866696357727,-0.81,-3.59,-0.07,3.68
18.549538135528564,-0.65,0.12,-2.14,2.23
18.565453052520752,-0.45,-5.07,0.31,5.09
18.56727409362793,-0.78,3.27,8.43,9.07
18.577635049819946,-0.37,7.69,7.5,10.74
18.58786702156067,0.41,-2.88,5.18,5.94
18.599246978759766,-0.16,4.81,1.13,4.94
18.614910125732422,1.08,3.16,-11.07,11.56
18.616962909698486,-0.83,-4.42,-11.62,12.45
18.62749695777893,-1.56,-2.62,-1.02,3.21
18.637804985046387,-0.32,3.03,-3.89,4.94
18.64930486679077,0.47,-3.26,-4.77,5.79
18.66525101661682,0.83,-7.82,10.72,13.29
18.667021989822388,0.67,1.96,16.55,16.67
18.677186965942383,-1.12,13.32,6.13,14.7
18.687568187713623,1.88,0.83,-8.58,8.82
18.698689937591553,-1.89,-2.87,-11.5,12.0
18.714672088623047,-1.66,-2.42,-7.29,7.85
18.716445922851562,-0.81,-7.31,-1.44,7.49
18.72696805000305,-0.34,-7.03,6.47,9.56
18.736679077148438,-0.33,-1.97,9.72,9.92
18.74821186065674,-0.21,1.12,5.85,5.95
18.76367712020874,-1.77,6.51,3.96,7.82
18.76619601249695,0.93,7.94,-1.58,8.14
18.77682113647461,2.94,-3.89,-9.25,10.45
18.786491870880127,0.15,-7.37,-2.96,7.94
18.798676013946533,1.03,-5.79,3.2,6.69
18.814871072769165,1.72,-0.16,-0.6,1.82
18.816724061965942,-0.07,5.9,-6.66,8.89
18.826579093933105,-0.52,4.11,-5.53,6.9
18.836644172668457,0.11,-2.82,-0.83,2.94
18.848026037216187,-0.38,-5.83,3.54,6.83
18.864014148712158,-1.42,-3.17,8.04,8.75
18.865790843963623,-2.35,8.28,7.65,11.51
18.876161098480225,1.48,11.34,-2.18,11.64
18.88571786880493,1.65,0.97,-8.38,8.59
18.897563934326172,-0.02,0.6,-9.51,9.52
18.913491010665894,-0.78,-3.04,-8.86,9.39
18.915398120880127,-0.84,-6.53,-2.92,7.2
18.926258087158203,-0.27,-7.18,9.92,12.24
18.935847997665405,-0.65,0.62,15.31,15.33
18.94783902168274,-1.19,14.46,4.38,15.15
18.96404218673706,1.95,2.13,-2.57,3.86
18.965814113616943,2.81,-8.08,-9.77,12.98
18.975636959075928,0.18,-1.37,-6.0,6.15
18.985131978988647,1.25,-5.6,-1.19,5.85
18.997291088104248,0.79,-7.31,3.76,8.25
19.014248847961426,0.43,-1.7,8.28,8.46
19.015971183776855,0.11,11.64,6.75,13.45
19.025453090667725,1.08,11.55,2.47,11.86
19.03533101081848,0.75,-3.42,-1.05,3.65
19.046951055526733,0.68,-4.37,-6.44,7.81
19.06339406967163,0.62,0.23,-12.29,12.3
19.06510305404663,-0.56,-5.15,-9.54,10.85
19.075180053710938,-0.29,-2.05,0.78,2.21
19.084540843963623,-1.44,3.13,1.27,3.67
19.096599102020264,-1.73,8.41,3.54,9.28
19.11275601387024,-0.52,3.41,7.26,8.03
19.11445188522339,0.82,-4.32,7.33,8.54
19.12513017654419,2.37,4.26,-0.91,4.95
19.13450002670288,2.9,3.68,-10.28,11.29
19.14684009552002,-0.61,2.11,-7.44,7.75
19.16339111328125,-0.78,-2.06,-3.37,4.02
19.1651349067688,-1.08,-5.26,-2.19,5.79
19.17473602294922,0.12,-5.31,-0.57,5.34
19.18444013595581,0.93,-2.27,-0.09,2.45
19.196280002593994,0.1,3.08,2.46,3.94
19.213047981262207,-0.28,3.97,4.96,6.35
19.21484613418579,-0.92,-1.05,6.55,6.69
19.224138975143433,-1.22,-2.88,7.65,8.26
19.234035968780518,0.02,0.2,3.15,3.15
19.246057987213135,1.63,8.63,-7.33,11.43
19.262634992599487,1.41,2.07,-9.63,9.95
19.264246940612793,-0.44,-4.23,-0.31,4.26
19.274616956710815,-1.31,-1.02,0.18,1.67
19.283574104309082,-0.43,-6.41,-4.14,7.64
19.29620885848999,-0.14,-5.86,1.66,6.09
19.313292026519775,-0.66,1.55,7.04,7.23
19.31500005722046,-0.47,6.72,5.1,8.44
19.323819160461426,-0.78,2.21,0.86,2.49
19.33346700668335,-1.5,4.14,-7.31,8.53
19.345882892608643,-1.96,-0.89,-13.56,13.72
19.36325693130493,-1.34,-7.67,-4.12,8.8
19.36495804786682,-0.18,-7.1,9.63,11.96
19.37352418899536,-0.07,-3.0,15.17,15.46
19.38326096534729,-0.74,6.44,5.49,8.49
19.39518117904663,0.36,9.16,-1.01,9.22
19.411781072616577,2.82,-6.56,-3.31,7.87
19.41350507736206,0.41,1.32,-1.39,1.96
19.42360806465149,0.65,3.58,-4.2,5.55
19.43295192718506,1.81,-5.08,-9.07,10.55
19.445101976394653,2.15,0.94,-3.59,4.28
19.46160101890564,0.41,-0.05,-3.59,3.61
19.463216066360474,-0.96,-4.22,0.48,4.35
19.472987174987793,-2.86,4.49,7.24,8.98
19.482401847839355,-3.8,4.64,7.3,9.44
19.49472999572754,-1.69,-4.44,5.86,7.54
19.51099395751953,-0.51,-4.71,2.15,5.2
19.51258087158203,1.72,2.12,-6.23,6.8
19.522847175598145,1.01,-1.14,-7.75,7.89
19.532711029052734,0.06,-1.53,1.75,2.32
19.544337034225464,1.25,6.42,1.49,6.7
19.560649871826172,1.24,2.61,-5.57,6.27
19.562313079833984,-0.76,-2.0,-3.61,4.19
19.572229862213135,-1.14,-0.2,1.0,1.52
19.582117080688477,-1.69,-2.92,2.27,4.06
19.594293117523193,-1.99,-2.78,5.49,6.46
19.610764026641846,-3.36,7.92,4.3,9.61
19.61248016357422,-0.83,2.79,-0.97,3.06
19.623021125793457,-0.37,-7.59,0.59,7.62
19.63191318511963,0.09,-3.9,-0.62,3.95
19.644236087799072,2.08,3.94,-7.75,8.93
19.660830974578857,-0.77,7.99,-8.41,11.62
19.662569046020508,-0.59,-3.16,3.38,4.66
19.672361850738525,0.56,-7.53,9.7,12.29
19.68140196800232,-0.49,-0.63,6.59,6.63
19.693636894226074,1.16,3.63,-6.32,7.38
19.71039390563965,-0.07,1.36,-9.27,9.36
19.711977005004883,-1.27,2.83,2.98,4.3
19.723801136016846,-1.26,6.33,5.29,8.34
19.731154918670654,-1.92,2.72,-2.53,4.18
19.743536949157715,-0.76,-6.39,-4.99,8.14
19.761154174804688,0.55,-1.9,-1.34,2.38
19.762642860412598,1.33,1.08,-2.56,3.08
19.773691177368164,0.77,-3.1,0.08,3.19
19.781185150146484,0.8,-1.44,3.7,4.05
19.793046951293945,-0.26,0.68,3.7,3.77
19.809509992599487,-0.42,-3.98,3.45,5.28
19.81107997894287,-0.79,1.44,3.02,3.43
19.824263095855713,1.32,7.83,-2.2,8.23
19.83060884475708,0.34,0.65,-5.03,5.08
19.842987060546875,-0.58,-1.39,-1.24,1.95
19.859839916229248,-1.56,1.51,-5.12,5.56
19.86131000518799,-2.09,-3.25,-7.26,8.22
19.873929977416992,0.16,-5.89,1.19,6.01
19.880630016326904,0.78,-4.49,9.64,10.66
19.892719984054565,0.35,5.34,10.0,11.34
19.909536838531494,1.07,7.47,5.25,9.19
19.910989999771118,1.08,0.35,-6.71,6.8
19.924098014831543,-1.19,0.36,-16.29,16.33
19.930119037628174,-1.8,-4.65,-7.95,9.38
19.94239902496338,-0.69,-7.1,2.52,7.56
19.95877504348755,-1.32,-3.86,7.2,8.27
19.960314989089966,-1.52,2.68,5.79,6.55
19.974667072296143,-0.32,8.57,3.65,9.32
19.979846954345703,-0.06,1.61,4.25,4.54
19.992379188537598,-1.35,0.6,-1.45,2.07
20.008952140808105,-0.1,1.33,-10.7,10.78
20.010441064834595,-0.6,-7.43,-7.66,10.68
20.024652004241943,-0.46,-6.17,2.67,6.73
20.029633045196533,-0.85,-3.27,8.84,9.46
20.04197597503662,-1.52,1.29,6.45,6.75
20.05849599838257,-2.11,8.14,1.2,8.49
20.059952974319458,0.26,2.07,2.15,2.99
20.074230194091797,0.09,-3.86,-0.11,3.86
20.0796480178833,-0.26,-2.87,-2.2,3.62
20.09201407432556,0.84,3.05,-7.36,8.01
20.10848617553711,0.1,-1.71,-10.41,10.54
20.109923839569092,-0.23,-5.99,1.52,6.18
20.12420415878296,-1.34,4.08,6.88,8.11
20.129050970077515,-0.77,4.37,2.66,5.17
20.141288995742798,-0.97,0.39,1.32,1.68
20.157980918884277,-0.71,4.73,0.76,4.84
20.15947699546814,-0.86,0.54,-3.79,3.92
20.17425012588501,-1.73,-2.46,-2.86,4.15
20.178915977478027,-1.79,0.47,-0.58,1.93
20.191566944122314,-1.07,-4.64,-0.38,4.77
20.208248138427734,-0.03,-5.11,2.62,5.74
20.209675073623657,0.66,3.38,0.25,3.45
20.224287033081055,0.92,7.32,-5.36,9.11
20.22859287261963,-0.25,-0.45,2.88,2.92
20.241111040115356,-1.35,1.54,8.48,8.72
20.25773811340332,-1.3,-1.94,4.54,5.1
20.259161949157715,0.41,-4.23,-4.88,6.47
20.275588989257812,1.29,-0.56,-11.36,11.44
20.27849817276001,1.05,-2.62,-7.6,8.1
20.291215896606445,1.09,-0.26,0.3,1.16
20.309664011001587,-1.02,6.65,4.98,8.37
20.311348915100098,-0.17,0.44,8.39,8.4
20.32308602333069,-0.96,0.1,8.0,8.05
20.328609943389893,0.95,0.59,1.64,1.98
20.341166973114014,1.38,2.25,-7.14,7.61
20.35939884185791,0.2,1.21,-7.78,7.87
20.361114978790283,0.29,-0.13,-4.67,4.68
20.372973918914795,-0.98,-3.38,-2.13,4.11
20.378298044204712,-1.24,-3.16,3.17,4.64
20.391024112701416,-1.45,4.43,6.14,7.7
20.41238784790039,-0.06,1.53,3.79,4.08
20.413890838623047,0.62,-4.26,3.29,5.41
20.423343181610107,1.29,2.91,-1.23,3.41
20.428277015686035,1.14,3.26,-8.79,9.44
20.44067406654358,-1.73,1.11,-6.7,7.0
20.45879316329956,-0.97,-5.32,1.47,5.6
20.460369110107422,-1.83,-4.7,7.72,9.22
20.472697973251343,-2.43,4.17,5.61,7.4
20.477240085601807,0.74,4.68,-1.82,5.07
20.489441871643066,0.74,-0.14,-4.77,4.82
20.50727415084839,0.74,-3.99,-1.38,4.28
20.508809089660645,0.54,-5.77,2.54,6.32
20.52287197113037,-0.52,-0.87,3.73,3.86
20.527185916900635,-0.43,8.11,1.85,8.32
20.540120124816895,0.26,6.38,-2.02,6.69
20.560186862945557,1.03,-5.54,-2.73,6.26
20.56192111968994,0.65,-2.66,-6.15,6.73
20.572715997695923,-0.43,-1.17,-10.02,10.09
20.57717800140381,-0.35,-6.03,-4.19,7.35
20.5892071723938,-0.03,-6.82,9.53,11.71
20.60890293121338,-0.89,2.41,16.1,16.3
20.610515117645264,-1.11,11.17,6.72,13.08
20.61656618118286,0.19,-0.26,-1.7,1.73
20.627152919769287,1.84,2.78,-11.29,11.77
20.639254093170166,-0.26,0.29,-12.43,12.43
20.657997131347656,0.42,-8.45,-0.6,8.48
20.6595721244812,0.95,-5.57,8.15,9.91
20.672915935516357,0.23,2.92,0.63,2.99
20.676323890686035,-0.12,5.07,-11.59,12.65
20.689260005950928,-0.45,-7.2,-1.17,7.3
20.70824384689331,-1.12,-5.85,13.15,14.43
20.709938049316406,-2.27,3.24,12.0,12.63
20.72277307510376,-2.53,5.6,1.24,6.26
20.726067066192627,-0.3,2.71,-2.61,3.77
20.73949909210205,0.18,0.34,-2.92,2.94
20.758342027664185,2.32,-1.98,-1.43,3.36
20.759942054748535,1.41,-0.33,-1.66,2.2
20.773334980010986,0.07,-3.11,0.08,3.11
20.776121139526367,-0.7,-0.18,-0.38,0.81
20.78765296936035,0.1,-2.45,-3.92,4.62
20.80621600151062,-0.61,4.48,-2.46,5.14
20.8077449798584,-1.25,7.78,-1.9,8.1
20.82271909713745,-1.27,-2.07,2.09,3.2
20.825325965881348,-0.43,-6.2,9.56,11.4
20.837554931640625,0.59,-0.18,5.17,5.2
20.855648040771484,4.01,3.45,-10.6,11.84
20.857184886932373,1.44,1.94,-17.31,17.47
20.87397289276123,0.29,-2.4,-1.66,2.93
20.875524044036865,-0.48,-1.28,8.66,8.76
20.887957096099854,-1.85,-3.94,13.13,13.83
20.90591812133789,-3.22,0.19,9.84,10.35
20.907373905181885,-2.77,4.61,0.14,5.38
20.923882007598877,0.44,-2.09,-10.67,10.88
20.925359964370728,-0.26,0.1,-9.72,9.72
20.937072038650513,0.98,8.56,-10.84,13.84
20.9547381401062,0.54,-2.51,-12.51,12.77
20.95625901222229,-0.36,-8.71,-1.02,8.77
20.973947048187256,0.27,-7.33,9.62,12.09
20.975406169891357,0.24,-2.65,18.7,18.88
20.98642587661743,-0.72,4.43,8.72,9.8
21.004235982894897,-1.59,3.22,0.88,3.69
21.00575017929077,-0.44,3.77,-2.49,4.53
21.024101972579956,1.01,7.52,-12.08,14.26
21.025578022003174,-1.07,-3.09,-8.58,9.18
21.037350177764893,0.02,-3.47,-0.95,3.59
21.055509090423584,1.36,-5.45,-1.4,5.78
21.05704116821289,0.18,-4.83,0.99,4.93
21.073646068572998,-0.48,4.18,6.36,7.62
21.07505989074707,0.95,11.09,7.36,13.34
21.086368083953857,0.73,3.01,6.77,7.44
21.10463285446167,-0.3,-0.14,1.17,1.21
21.10611391067505,0.49,-1.3,-9.85,9.94
21.11399006843567,0.05,-6.43,-9.49,11.46
21.124561071395874,-0.03,-6.58,3.73,7.56
21.135799884796143,-0.57,-2.03,9.91,10.13
21.15379285812378,-0.79,1.75,7.1,7.35
21.155441999435425,-0.77,4.19,0.16,4.26
21.17365789413452,1.32,7.53,-8.12,11.15
21.175300121307373,0.36,4.19,-17.24,17.74
21.185760021209717,-1.0,-6.43,-6.82,9.42
21.203691959381104,0.34,-7.43,5.15,9.04
21.20518684387207,0.13,-5.17,6.9,8.62
21.223567008972168,-0.33,-2.54,-0.26,2.57
21.22511601448059,-0.81,0.45,-0.77,1.2
21.23589301109314,-1.93,8.96,4.3,10.12
21.254197120666504,0.04,5.9,6.84,9.03
21.255684852600098,-0.73,-0.83,1.94,2.23
21.273308992385864,0.37,-2.9,-5.48,6.21
21.274875164031982,1.11,-7.59,-6.44,10.01
21.285027980804443,0.17,-7.03,-1.53,7.19
21.302608013153076,2.15,-2.98,-3.03,4.76
21.304121017456055,1.88,0.55,-4.92,5.29
21.32328510284424,-0.88,2.77,1.96,3.5
21.32470703125,-0.96,14.31,5.11,15.22
21.33486795425415,-0.69,3.61,6.45,7.42
21.353147983551025,-2.06,-1.74,3.16,4.15
21.354761123657227,-0.47,-3.17,-3.23,4.55
21.37392807006836,-0.62,-4.04,-7.95,8.93
21.37568998336792,-0.2,-4.51,-0.46,4.53
21.385442972183228,-0.44,0.23,3.68,3.71
21.405395984649658,-0.39,4.16,0.54,4.21
21.407108068466187,-0.09,7.01,-1.35,7.13
21.423784017562866,-1.1,1.5,-2.11,2.81
21.425255060195923,-1.08,-5.09,0.44,5.22
21.43458604812622,-0.74,-6.46,3.86,7.56
21.452342987060547,-1.28,-1.59,4.56,4.99
21.454145908355713,-0.95,6.08,-1.93,6.44
21.462472915649414,-0.57,-1.92,-2.72,3.37
21.473186016082764,-1.02,-0.47,1.87,2.18
21.484793186187744,0.43,5.85,0.35,5.87
21.50513792037964,-0.26,-0.71,0.25,0.79
21.507183074951172,0.76,-5.99,4.89,7.76
21.512185096740723,0.42,-0.91,1.92,2.16
21.52281093597412,1.44,0.83,-6.28,6.49
21.534090042114258,-0.32,-1.72,-2.28,2.87
21.554673194885254,-0.33,2.82,6.08,6.71
21.556593894958496,0.28,8.94,0.56,8.96
21.561962127685547,1.33,1.69,-9.38,9.62
21.573353052139282,0.23,2.27,-7.84,8.16
21.584028005599976,0.89,-3.71,-4.04,5.55
21.604953050613403,-0.26,-6.66,2.5,7.11
21.606863021850586,-1.47,-0.94,7.66,7.85
21.61155104637146,-1.98,5.71,8.0,10.02
21.622117042541504,-0.71,8.05,2.0,8.32
21.633785009384155,-0.56,1.91,-5.43,5.78
21.652411937713623,-1.7,-3.07,-9.35,9.98
21.654237031936646,-1.35,-2.82,-7.4,8.03
21.66145396232605,1.22,-6.0,-4.32,7.49
21.67142391204834,1.96,-5.42,-0.83,5.82
21.683197021484375,2.83,-4.34,7.38,9.01
21.70365285873413,2.28,4.2,11.49,12.44
21.705569982528687,0.72,7.72,7.34,10.67
21.71128511428833,0.67,-0.99,1.27,1.74
21.7216739654541,-0.2,2.61,-6.47,6.97
21.73304319381714,-0.98,-2.07,-7.28,7.63
21.752459049224854,-0.79,-5.9,-0.53,5.97
21.754292011260986,-0.74,-3.0,4.21,5.22
21.760884046554565,0.98,5.34,-1.5,5.63
21.770710945129395,2.21,4.82,-9.56,10.93
21.78292989730835,0.39,-2.41,-3.34,4.13
21.802331924438477,0.09,-5.45,3.92,6.71
21.80411386489868,-1.03,-3.52,5.76,6.82
21.810544967651367,-2.03,6.92,1.06,7.28
21.820806980133057,-0.26,3.72,-4.54,5.87
21.83285403251648,-0.75,-3.34,-0.16,3.42
21.852352142333984,0.38,-4.11,4.2,5.88
21.85407590866089,0.43,3.28,2.14,3.93
21.86019206047058,2.19,5.17,-3.96,6.87
21.870503902435303,0.96,-3.2,-0.59,3.39
21.8821439743042,0.42,-1.76,3.59,4.02
21.901751041412354,-0.35,-2.86,-0.44,2.91
21.903712034225464,-1.06,-4.63,-0.51,4.77
21.910048007965088,-1.33,1.29,4.1,4.49
21.924576997756958,-1.87,3.52,5.43,6.73
21.931570053100586,-0.86,-2.41,4.85,5.48
21.95007610321045,0.83,1.78,1.7,2.59
21.951771020889282,2.76,-0.03,-4.4,5.19
21.960319995880127,0.87,-4.92,-2.58,5.62
21.969748973846436,-0.17,6.6,-3.93,7.68
21.981930017471313,-0.81,0.01,-8.99,9.02
22.000396966934204,-0.89,-8.02,-1.86,8.28
22.002153873443604,-1.71,-5.05,5.9,7.95
22.009727954864502,-1.26,-0.33,4.39,4.57
22.0196750164032,-0.57,1.9,-1.74,2.63
22.031683921813965,1.42,10.59,-5.9,12.2
22.049981117248535,5.22,2.34,-5.03,7.61
22.051748991012573,2.94,-6.26,2.6,7.38
22.059448957443237,2.9,-2.49,2.94,4.82
22.06950616836548,0.01,-2.5,-0.04,2.5
22.081096172332764,-1.01,-1.73,1.5,2.5
22.098959922790527,-2.07,7.45,1.84,7.94
22.100654125213623,-2.7,6.05,0.82,6.67
22.109099864959717,-1.44,-2.19,4.29,5.02
22.11855697631836,-0.81,-6.49,1.18,6.64
22.130949020385742,0.08,-5.09,-4.09,6.53
22.1495361328125,0.92,3.74,-9.07,9.85
22.151308059692383,0.04,2.78,-9.68,10.07
22.158841133117676,-0.14,1.49,0.86,1.72
22.168720960617065,-0.07,4.74,7.42,8.8
22.18115997314453,-0.02,1.77,6.62,6.85
22.199820041656494,-0.84,-1.49,3.29,3.7
22.20160484313965,0.56,1.61,-2.57,3.08
22.20866298675537,1.74,-1.29,-8.88,9.14
22.21845817565918,0.69,-3.33,-2.88,4.45
22.230424880981445,1.34,-2.96,2.4,4.03
22.249260902404785,0.5,-1.07,2.41,2.68
22.251237869262695,0.36,5.19,1.54,5.42
22.258150100708008,0.57,3.33,0.59,3.42
22.268085956573486,-0.76,-3.83,0.89,4.0
22.28016996383667,-1.42,-0.76,-1.97,2.54
22.301011085510254,-1.78,2.29,-5.61,6.31
22.303121089935303,0.09,-0.25,0.25,0.36
22.308270931243896,1.26,-4.17,7.06,8.29
22.324475049972534,0.28,-3.81,6.29,7.35
22.329862117767334,-0.69,1.59,2.84,3.32
22.350143909454346,-1.11,2.6,-3.58,4.56
22.3521728515625,-2.04,-1.19,-5.98,6.42
22.357595920562744,-0.86,1.0,-4.31,4.5
22.367743968963623,0.58,-1.1,-3.3,3.52
22.37960386276245,0.45,1.75,1.37,2.26
22.399951934814453,1.68,5.25,3.06,6.3
22.40239906311035,0.88,0.65,0.19,1.11
22.407920837402344,-0.11,-5.43,0.12,5.43
22.417896032333374,-0.63,-3.68,-0.57,3.77
22.429365158081055,-1.07,-2.54,2.36,3.62
22.450172901153564,-1.74,6.07,5.64,8.46
22.452280044555664,-1.08,8.43,3.68,9.26
22.45788812637329,-0.6,-0.83,-0.21,1.04
22.467292070388794,0.23,0.42,-6.46,6.47
22.47894597053528,-0.34,-1.76,-10.9,11.04
22.499001026153564,0.18,-8.05,-1.4,8.17
22.500818967819214,0.32,-5.24,7.67,9.29
22.50794005393982,-0.17,1.03,5.8,5.89
22.516662120819092,0.55,6.83,-3.21,7.56
22.529245853424072,0.18,-0.27,-8.43,8.43
22.550364017486572,-1.18,-3.0,-4.88,5.84
22.551851987838745,-1.44,-5.83,1.85,6.28
22.557446002960205,-1.93,-5.93,7.03,9.39
22.566906929016113,-2.76,1.14,5.4,6.17
22.578258991241455,-3.91,13.43,0.36,13.99
22.598155975341797,0.21,6.62,0.64,6.65
22.599963188171387,-0.17,-3.12,1.27,3.37
22.607051849365234,-0.15,-2.51,-5.64,6.17
22.616013050079346,0.14,-1.91,-12.91,13.05
22.62858009338379,0.5,-3.09,-7.73,8.33
22.648888111114502,-0.24,-6.53,0.5,6.55
22.65076208114624,-1.06,-3.74,8.91,9.72
22.657397031784058,-2.59,9.96,11.8,15.65
22.665974140167236,-0.61,9.82,5.9,11.47
22.678076028823853,0.76,1.54,-1.08,2.02
22.695716857910156,3.38,-3.94,-10.97,12.13
22.697293996810913,0.2,-5.9,-6.73,8.95
22.708765983581543,0.08,-7.13,0.66,7.16
22.71592903137207,-0.71,-3.51,0.74,3.65
22.727974891662598,-0.79,0.14,-0.18,0.82
22.74601984024048,-1.97,7.85,4.47,9.24
22.747586011886597,0.62,10.46,5.2,11.69
22.757193088531494,1.25,-2.16,-0.57,2.55
22.76519203186035,1.04,-2.96,-7.65,8.26
22.77720594406128,0.38,-1.4,-5.51,5.69
22.795609951019287,0.42,-2.41,0.3,2.46
22.79715585708618,-0.22,1.06,4.79,4.91
22.807859897613525,-0.41,3.95,5.2,6.54
22.815214157104492,-0.47,-2.26,3.11,3.87
22.827659130096436,-0.5,-3.6,0.68,3.69
22.846184968948364,-0.03,3.55,-2.6,4.4
22.847763061523438,0.49,3.09,-4.34,5.35
22.857460975646973,0.14,-1.79,0.62,1.89
22.86486506462097,0.22,-6.42,5.08,8.18
22.876827001571655,-0.66,-0.37,5.68,5.73
22.89513897895813,0.85,10.96,-2.71,11.32
22.896756172180176,0.76,2.07,-10.01,10.25
22.9073748588562,-0.6,2.42,-1.94,3.15
22.91552996635437,0.71,5.64,-6.47,8.61
22.9263858795166,-0.99,-3.5,-10.74,11.33
22.94466805458069,-1.21,-6.52,2.69,7.15
22.946279048919678,-1.91,-5.27,12.89,14.05
22.957537174224854,-2.23,-0.12,7.21,7.54
22.96429204940796,-1.78,1.77,-3.77,4.52
22.976500034332275,1.21,2.73,-8.26,8.78
22.996336936950684,0.31,0.41,-4.03,4.06
22.99804401397705,-0.17,-1.63,2.61,3.08
23.007233142852783,-1.03,-0.1,4.27,4.39
23.013990879058838,-0.68,-1.98,4.01,4.52
23.026813983917236,-0.27,-0.33,2.84,2.87
23.046799182891846,0.59,1.84,-0.09,1.93
23.0483341217041,0.42,-0.1,-3.61,3.63
23.057125091552734,1.08,-1.54,-3.04,3.57
23.064127922058105,1.0,0.7,-0.78,1.44
23.0762140750885,-0.21,-0.04,1.33,1.34
23.097322940826416,-0.94,-2.52,4.8,5.5
23.099177837371826,-1.06,1.37,4.03,4.38
23.107805013656616,-0.17,1.02,-3.22,3.38
23.113542079925537,-0.17,-0.39,-5.33,5.34
23.126492023468018,-0.15,0.06,0.0,0.16
23.145832061767578,-0.69,-3.1,2.01,3.75
23.14741802215576,-0.67,0.98,-0.04,1.18
23.153455018997192,0.0,0.6,-1.93,2.02
23.163679122924805,0.76,1.25,0.64,1.59
23.17645502090454,0.63,-3.39,1.83,3.9
23.196475982666016,-0.51,-0.42,2.32,2.41
23.19812798500061,-0.31,6.35,-3.1,7.07
23.20733118057251,-0.81,0.28,-3.84,3.93
23.213313102722168,-0.86,-5.6,6.3,8.47
23.22620391845703,-0.88,-5.02,8.66,10.04
23.246158123016357,-0.7,3.74,-0.35,3.82
23.247817039489746,0.84,3.72,-11.42,12.03
23.257287979125977,-0.53,-6.86,-4.93,8.46
23.262619972229004,0.7,-3.83,3.94,5.53
23.275079011917114,1.49,3.98,2.87,5.12
23.294375896453857,0.55,2.9,1.74,3.42
23.296058177947998,0.49,-0.23,5.46,5.48
23.30823302268982,-0.09,3.79,0.36,3.8
23.312385082244873,-0.39,3.3,-12.52,12.95
23.325210094451904,-1.74,-6.6,-8.29,10.73
23.34299397468567,-1.19,-5.4,4.64,7.21
23.344495058059692,-1.93,0.45,7.91,8.15
23.357455015182495,-2.02,6.38,-0.63,6.72
23.36190700531006,0.41,0.01,-0.67,0.78
23.37414002418518,0.01,2.62,2.01,3.3
23.39123296737671,0.93,2.67,-4.72,5.5
23.392693042755127,-0.82,-5.03,-2.72,5.77
23.406752109527588,-1.39,-5.05,4.68,7.02
23.41198205947876,-2.88,-1.66,3.92,5.13
23.42432403564453,-3.37,6.33,-3.68,8.06
23.442441940307617,-1.39,3.92,-11.74,12.45
23.443942070007324,-2.99,-5.15,-5.66,8.21
23.45750093460083,-1.3,-6.45,3.03,7.24
23.46143913269043,0.6,-6.7,8.7,10.99
23.474544048309326,2.13,-1.59,9.28,9.65
23.492915153503418,1.34,7.85,4.3,9.05
23.494415044784546,4.26,7.67,5.7,10.46
23.508053064346313,4.62,0.29,-0.39,4.64
23.511119842529297,-0.19,-3.14,-6.67,7.37
23.52395486831665,-1.67,3.53,-7.23,8.21
23.54203510284424,-2.17,2.69,-9.83,10.41
23.54357600212097,-2.71,-3.8,-10.54,11.52
23.557875156402588,-1.57,-5.24,-2.82,6.15
23.561259984970093,-1.12,-5.3,4.34,6.94
23.573594093322754,-1.73,1.06,9.9,10.1
23.591301918029785,0.24,11.19,6.03,12.71
23.59272813796997,2.44,-4.28,5.05,7.05
23.607447147369385,1.08,-6.88,5.32,8.76
23.610780000686646,-0.19,4.15,-2.82,5.02
23.623310089111328,-1.25,1.66,-11.39,11.57
23.64145302772522,-2.21,-0.37,-6.21,6.6
23.64293909072876,-2.25,4.29,0.93,4.93
23.65887212753296,-0.93,-3.86,-1.19,4.14
23.660501956939697,-0.59,-7.33,-1.21,7.45
23.673272132873535,0.3,-2.04,1.79,2.73
23.692713022232056,-1.24,3.77,3.64,5.38
23.69438600540161,-0.5,-2.05,6.67,6.99
23.70849609375,-0.99,-3.33,9.8,10.39
23.710105895996094,-0.46,10.6,4.7,11.6
23.7223219871521,5.0,6.47,-7.1,10.82
23.74037003517151,0.2,-2.08,-11.47,11.65
23.741901874542236,-0.77,-3.89,-6.53,7.63
23.75798797607422,-0.53,-7.4,-0.34,7.42
23.759838104248047,-1.61,-6.13,2.77,6.91
23.7721848487854,-1.26,-2.08,-0.62,2.5
23.79082202911377,-0.65,0.93,-3.15,3.34
23.792375087738037,-0.72,10.32,-3.51,10.92
23.808866024017334,1.46,5.54,-1.94,6.04
23.810265064239502,0.42,-3.82,5.7,6.87
23.822304010391235,-0.55,1.24,7.01,7.14
23.840860843658447,-0.86,0.85,-3.36,3.57
23.842396020889282,-0.62,-4.83,-10.82,11.86
23.858826160430908,-0.6,-6.43,1.85,6.71
23.860354900360107,-1.58,-2.35,13.67,13.96
23.87121605873108,-3.11,7.1,9.13,11.97
23.889124870300293,-1.02,-1.75,0.51,2.08
23.8906409740448,0.69,-7.37,-5.3,9.1
23.908597946166992,2.8,2.39,-11.2,11.78
23.910147190093994,1.8,3.05,-11.91,12.42
23.921504974365234,0.91,-2.74,-4.06,4.98
23.93982696533203,0.29,-1.46,2.61,3.0
23.941393852233887,-1.23,0.19,4.79,4.94
23.95921516418457,-1.64,2.19,8.59,9.01
23.960594177246094,-1.06,1.53,13.24,13.37
23.971065044403076,-0.73,5.17,10.72,11.92
23.989938974380493,1.95,3.1,-2.47,4.41
23.991436004638672,3.97,-0.54,-13.92,14.48
24.009132862091064,-1.41,2.45,-10.62,10.98
24.01075315475464,-0.96,-0.13,-7.69,7.75
24.021120071411133,-2.44,1.4,-8.64,9.08
24.03947114944458,-1.57,-3.97,-3.88,5.76
24.040987968444824,-0.59,-5.22,5.16,7.36
24.058876991271973,-0.27,4.61,12.34,13.17
24.060315132141113,1.95,8.78,10.48,13.81
24.070311069488525,1.9,-3.03,9.31,9.97
24.088892936706543,0.9,-3.09,3.28,4.59
24.090444087982178,0.79,-2.22,-7.54,7.89
24.109035968780518,-0.65,-2.67,-11.56,11.88
24.11045789718628,-2.18,3.48,-6.58,7.75
24.119874954223633,-1.23,-3.79,-5.59,6.86
24.13735818862915,-0.06,-7.61,2.19,7.91
24.138898849487305,0.67,-3.99,10.82,11.55
24.158996105194092,-0.11,4.71,7.66,8.99
24.16049289703369,0.34,13.95,0.41,13.96
24.169985055923462,1.25,8.79,-8.73,12.45
24.18817901611328,-1.4,-5.83,-7.49,9.59
24.189730167388916,-2.78,-5.29,-1.17,6.08
24.209135055541992,-1.71,-0.72,1.3,2.26
24.210644960403442,-0.72,-2.6,-1.0,2.87
24.21944284439087,0.0,-2.46,1.94,3.13
24.237276077270508,0.66,2.06,-0.64,2.25
24.238857984542847,5.63,2.05,-8.68,10.54
24.247562885284424,-0.08,-3.57,-8.56,9.27
24.25832200050354,-1.22,-2.57,3.61,4.59
24.269081115722656,-0.4,-0.16,10.01,10.01
24.2869770526886,-0.41,3.99,4.91,6.34
24.28882598876953,1.87,6.21,0.37,6.49
24.297590970993042,3.15,5.93,-2.24,7.07
24.308295965194702,0.93,-4.35,2.27,4.99
24.319488048553467,0.46,-7.87,8.13,11.32
24.338237047195435,-0.57,-1.39,3.52,3.82
24.339843034744263,0.14,-2.71,-7.75,8.21
24.347239017486572,-2.48,-4.64,-10.14,11.42
24.357987880706787,-1.84,-0.71,-0.35,2.0
24.36964511871338,-2.08,-1.11,11.07,11.31
24.389427185058594,-1.27,1.3,14.56,14.67
24.391364097595215,-0.07,10.77,5.89,12.27
24.396731853485107,4.73,3.47,-8.98,10.72
24.407517910003662,1.25,-6.5,-9.54,11.61
24.419028997421265,-0.95,-2.75,-0.67,2.98
24.439099073410034,-0.15,0.58,-4.3,4.34
24.441065073013306,-0.31,-2.03,-11.96,12.13
24.44643807411194,-1.38,-5.52,-5.49,7.9
24.457199096679688,-1.06,-2.42,0.81,2.76
24.468621969223022,-0.77,1.77,2.58,3.22
24.487081050872803,0.0,5.27,10.0,11.3
24.48889684677124,3.44,2.22,20.35,20.75
24.496595859527588,3.01,3.95,16.0,16.75
24.506657123565674,4.33,-0.55,-1.86,4.74
24.518810987472534,3.1,-7.91,-11.55,14.33
24.538660049438477,1.63,0.88,-12.16,12.3
24.540597915649414,-2.24,9.82,-10.89,14.83
24.54599618911743,-2.69,-3.49,-16.64,17.21
24.55640697479248,-1.11,-7.53,-7.46,10.65
24.567775011062622,-0.38,-6.54,7.16,9.7
24.58798313140869,-1.0,-4.79,18.05,18.7
24.589930057525635,-2.5,13.02,6.42,14.73
24.595867156982422,1.31,17.14,-11.29,20.56
24.60595202445984,3.13,-6.23,-17.9,19.2
24.617933988571167,-0.53,-7.22,-2.0,7.51
24.636895179748535,0.55,-8.65,18.64,20.55
24.638733863830566,0.03,-3.05,27.19,27.36
24.645524978637695,-1.41,3.92,1.95,4.59
24.655649185180664,-2.26,8.2,-13.86,16.26
24.667470932006836,-0.22,0.25,-18.64,18.64
24.68798303604126,-4.38,0.7,-9.3,10.3
24.689805030822754,-2.19,-8.84,-2.86,9.54
24.695695877075195,-0.42,-7.01,1.96,7.29
24.706078052520752,-1.19,-3.31,-0.78,3.6
24.717148065567017,-0.31,-2.95,5.68,6.4
24.73611307144165,1.07,0.5,11.14,11.2
24.737956047058105,0.4,10.55,9.58,14.25
24.745141983032227,1.77,4.77,6.81,8.5
24.75894594192505,4.48,1.11,-4.74,6.61
24.766883850097656,0.88,3.5,-14.09,14.54
24.786017894744873,-0.55,-5.34,-7.55,9.26
24.787734985351562,0.16,-5.43,1.58,5.65
24.79516100883484,0.89,-4.02,0.76,4.18
24.808308124542236,0.36,1.19,-7.11,7.21
24.81619095802307,-2.72,5.79,-4.47,7.8
24.83437705039978,-2.31,1.12,6.83,7.29
24.83595299720764,-2.71,11.38,12.58,17.17
24.844577074050903,-1.34,3.89,5.32,6.72
24.854480981826782,0.01,-8.8,0.53,8.81
24.866365909576416,0.56,-3.65,-3.56,5.12
24.884644985198975,0.87,-0.23,-5.29,5.36
24.88641595840454,-1.5,-5.11,0.08,5.32
24.89451003074646,-1.96,-6.36,3.6,7.56
24.904486179351807,-3.16,-0.75,3.65,4.88
24.916234970092773,-4.36,11.05,-2.88,12.22
24.93434715270996,-1.19,5.42,-8.33,10.0
24.93606185913086,-0.3,-8.45,-1.61,8.6
24.944104194641113,-0.21,-6.84,0.83,6.89
24.953679084777832,-0.76,-5.19,-1.21,5.38
24.96578884124756,-0.15,-0.82,-3.81,3.9
24.983865976333618,-1.23,0.77,1.13,1.83
24.98560619354248,-2.0,12.77,5.59,14.08
24.994072914123535,1.55,19.92,7.15,21.22
25.003422021865845,0.3,-1.03,6.39,6.47
25.016057014465332,-0.89,-9.21,3.34,9.83
25.03409504890442,-0.84,-7.53,-7.04,10.34
25.035869121551514,2.78,-3.31,-14.83,15.44
25.043668031692505,0.74,0.35,-9.02,9.05
25.054054021835327,0.44,-0.12,-8.16,8.17
25.06588315963745,-2.17,-4.83,-4.79,7.14
25.083755016326904,-2.44,-5.06,6.05,8.25
25.085312843322754,-3.67,-0.19,18.4,18.76
25.093482971191406,-4.09,5.57,16.03,17.45
25.103312015533447,-5.89,14.9,4.57,16.66
25.11529803276062,-0.52,-2.19,1.28,2.58
25.133596897125244,1.11,-4.84,-7.04,8.61
25.135332107543945,-1.65,-5.85,-9.12,10.95
25.14348316192627,-0.33,-1.02,-2.86,3.05
25.15295100212097,1.97,5.89,-7.98,10.11
25.165278911590576,0.19,-1.28,-6.71,6.83
25.183834075927734,-0.29,0.5,2.85,2.9
25.18552303314209,1.1,0.36,8.22,8.3
25.19310188293457,-1.15,-3.39,13.2,13.67
25.20255398750305,0.39,-0.72,11.55,11.57
25.214783191680908,0.65,0.87,-0.08,1.08
25.232719898223877,2.2,3.42,-8.71,9.61
25.23443603515625,-0.75,6.07,-8.82,10.73
25.242682933807373,-1.24,3.14,-7.4,8.13
25.251994132995605,-0.68,-5.88,-7.51,9.56
25.26448392868042,0.36,-8.14,0.46,8.16
25.282381057739258,1.52,-5.73,8.08,10.02
25.28412389755249,1.25,0.22,13.3,13.36
25.292439937591553,-0.79,13.61,8.33,15.97
25.30190896987915,0.39,6.02,3.16,6.81
25.31467604637146,1.84,-3.58,-4.54,6.06
25.332839965820312,0.31,7.11,-14.84,16.45
25.334540843963623,-2.25,2.84,-19.85,20.17
25.34205913543701,-0.99,-5.85,-13.11,14.39
25.35145902633667,-1.09,-7.52,-4.27,8.71
25.36391806602478,-0.53,-8.99,12.64,15.52
25.382145881652832,-0.15,-7.26,20.65,21.88
25.38377618789673,0.71,-0.1,9.07,9.09
25.39212989807129,-0.75,0.26,-7.53,7.57
25.401793003082275,-2.47,2.05,-8.55,9.13
25.413937091827393,0.64,6.17,-4.9,7.9
25.43254518508911,-1.09,0.78,1.55,2.04
25.434030055999756,-3.62,3.04,5.89,7.55
25.442085027694702,-0.03,-3.28,6.89,7.63
25.45094108581543,0.18,-5.23,1.96,5.58
25.4634108543396,1.67,3.03,-5.65,6.62
25.48126196861267,3.91,2.83,-9.48,10.63
25.482815980911255,-0.4,-3.58,0.76,3.68
25.491822957992554,0.57,-5.94,9.41,11.14
25.500936031341553,-2.05,2.51,8.3,8.91
25.51328706741333,-1.97,8.8,0.07,9.01
25.53144598007202,-1.14,2.2,-5.69,6.2
25.532945156097412,-2.06,-4.18,-1.89,5.02
25.541584014892578,-0.8,-4.26,1.67,4.64
25.550888061523438,0.22,2.01,-2.12,2.92
25.5629301071167,1.07,5.39,-5.86,8.03
25.581050872802734,-0.39,3.71,-0.4,3.75
25.582540035247803,2.03,-3.65,1.3,4.37
25.5920569896698,0.02,-7.39,1.44,7.52
25.600118160247803,-0.73,-2.8,4.42,5.28
25.61267900466919,0.57,4.41,2.27,4.99
25.630921840667725,0.79,0.7,0.17,1.06
25.632405042648315,-0.47,0.51,-1.6,1.74
25.64191484451294,0.7,-4.78,-3.92,6.22
25.649922847747803,-0.26,-7.26,-0.78,7.3
25.662804126739502,-0.27,-5.63,-0.07,5.63
25.681040048599243,-0.39,-3.86,-5.4,6.64
25.682519912719727,-1.18,-2.64,-6.6,7.2
25.69158101081848,-0.99,2.92,-0.38,3.1
25.7000629901886,-2.25,22.86,2.8,23.14
25.71218490600586,2.08,18.06,3.59,18.53
25.729755878448486,1.2,-3.54,1.42,3.99
25.731217861175537,1.13,-9.74,-5.43,11.2
25.741500854492188,1.54,-8.2,0.01,8.34
25.74958610534668,1.37,-5.42,1.46,5.77
25.761859893798828,0.51,-2.28,1.11,2.58
25.78004789352417,-1.24,-2.23,1.91,3.18
25.781501054763794,-2.26,-0.78,1.73,2.95
25.79216194152832,-3.68,1.63,-0.74,4.09
25.7991681098938,-3.76,2.52,-1.58,4.79
25.811913013458252,-2.86,3.88,-4.61,6.66
25.83003807067871,-1.75,-2.31,-0.73,2.98
25.83153486251831,-1.13,-0.03,5.49,5.6
25.841803073883057,0.42,-1.1,6.53,6.63
25.848960876464844,-0.26,3.47,4.73,5.87
25.861485958099365,-0.03,7.89,0.82,7.93
25.880033016204834,2.67,-5.01,-1.73,5.93
25.881547927856445,-0.39,-4.35,0.75,4.43
25.891963958740234,-0.48,3.11,0.49,3.18
25.899441957473755,-0.58,4.77,-8.57,9.82
25.911356925964355,0.39,-2.49,-7.06,7.49
25.930137157440186,1.51,-2.3,-2.35,3.61
25.93165898323059,1.01,-4.13,-5.02,6.57
25.94231414794922,-0.29,-4.3,0.48,4.33
25.94879388809204,-0.49,-2.97,13.24,13.57
25.96116018295288,0.04,8.12,18.24,19.96
25.980172157287598,-0.62,12.1,7.49,14.24
25.98167896270752,1.28,-5.78,-9.49,11.18
25.992414951324463,0.66,-6.0,-18.98,19.91
25.99832010269165,-1.36,2.05,-9.51,9.82
26.011014938354492,-0.35,-5.47,-5.91,8.06
26.031578063964844,0.38,-7.55,-1.26,7.66
26.03311586380005,0.26,-3.25,6.3,7.09
26.041945934295654,-0.52,9.48,7.52,12.11
26.04852294921875,0.93,14.24,3.55,14.7
26.06101083755493,0.81,-3.08,4.13,5.21
26.08222007751465,-0.39,-5.82,-1.88,6.12
26.08406400680542,-0.58,-1.76,-5.42,5.72
26.092684984207153,-0.47,7.78,-8.21,11.32
26.097848892211914,-0.13,3.4,-9.93,10.49
26.11068606376648,-0.3,-6.05,2.63,6.6
26.131003856658936,-0.69,-3.99,10.27,11.03
26.13265299797058,-0.97,-2.66,10.73,11.09
26.142271995544434,-1.5,4.19,4.3,6.18
26.147945880889893,-0.5,6.31,-0.03,6.32
26.160449028015137,-0.82,-5.72,-0.55,5.8
26.180866956710815,-2.82,-0.89,-0.96,3.1
26.18256902694702,-1.79,-3.64,-1.12,4.2
26.1923508644104,-1.21,-3.69,0.28,3.89
26.197400093078613,-0.83,1.23,2.17,2.62
26.210379123687744,1.51,2.68,-1.85,3.58
26.23173713684082,1.99,2.13,-3.27,4.38
26.233519077301025,2.74,-0.18,-1.39,3.07
26.242289066314697,1.66,-4.51,0.45,4.82
26.247171878814697,0.4,-6.77,1.81,7.01
26.259678840637207,-1.18,-4.69,1.38,5.02
26.280405044555664,-1.09,0.81,-0.81,1.58
26.282129049301147,-0.77,7.83,-2.65,8.3
26.29245901107788,0.1,0.1,6.8,6.8
26.29681706428528,-0.18,7.55,11.85,14.05
26.309344053268433,-0.2,10.13,5.53,11.54
26.330062866210938,0.3,-6.02,-0.8,6.08
26.331647872924805,-0.39,-6.86,-5.95,9.08
26.342432975769043,1.22,1.7,-14.32,14.47
26.346511840820312,-0.08,0.66,-19.0,19.01
26.358980178833008,0.66,-5.47,-12.68,13.82
26.38051700592041,0.67,-6.76,-4.52,8.15
26.382294178009033,1.16,-7.36,8.61,11.38
26.39240312576294,2.29,-2.58,18.29,18.61
26.39663004875183,2.6,16.34,13.23,21.18
26.409188985824585,0.84,8.51,9.05,12.45
26.429026126861572,3.11,-8.58,1.69,9.28
26.430634021759033,3.17,-0.15,-12.9,13.28
26.44263195991516,-1.45,1.97,-13.97,14.18
26.44606304168701,-0.11,-7.89,-2.29,8.21
26.458984851837158,-0.97,-5.85,4.19,7.26
26.477764129638672,-2.04,-1.58,2.99,3.94
26.479351043701172,-1.29,3.94,-7.21,8.31
26.492012977600098,-0.26,5.63,-7.54,9.41
26.495625019073486,1.91,-4.57,7.16,8.7
26.508684158325195,3.59,0.28,15.23,15.64
26.52765989303589,0.77,12.14,9.55,15.46
26.529090881347656,1.97,3.95,-2.97,5.32
26.54228115081787,1.43,-3.27,-7.4,8.21
26.54576015472412,-0.86,-0.68,-9.15,9.21
26.558104991912842,0.08,-6.98,-3.81,7.95
26.57741403579712,0.59,-4.26,5.65,7.1
26.579020023345947,0.24,-0.73,3.77,3.84
26.5924711227417,-0.89,3.52,-3.03,4.72
26.59515404701233,0.46,11.54,-9.38,14.87
26.60755705833435,0.91,7.75,-14.06,16.08
26.628090858459473,0.78,-6.96,-3.8,7.96
26.629621982574463,1.77,-9.34,11.76,15.12
26.643102169036865,2.92,-4.42,23.74,24.32
26.64497399330139,-0.1,4.5,9.25,10.28
26.657238960266113,-1.35,10.73,-5.16,11.98
26.677932024002075,2.17,-9.69,-9.99,14.08
26.679500102996826,-0.64,-7.07,-4.45,8.37
26.693522930145264,-1.58,-4.03,2.77,5.13
26.695273876190186,-1.19,-5.64,2.3,6.2
26.707263946533203,-1.43,-1.53,-1.09,2.36
26.727604866027832,-0.01,-0.19,-1.03,1.04
26.729105949401855,1.87,9.85,-5.49,11.43
26.742836952209473,3.25,17.19,-11.82,21.11
26.74427103996277,2.3,7.25,-9.28,11.99
26.756558895111084,1.35,-5.16,2.3,5.8
26.775768995285034,1.73,-9.48,8.57,12.89
26.777323007583618,0.2,-7.23,9.05,11.58
26.793001174926758,-0.98,-2.3,1.02,2.7
26.79448103904724,-0.75,-1.78,-3.85,4.3
26.807024002075195,-1.61,-2.68,-1.19,3.34
26.826830863952637,-1.8,-1.31,6.23,6.61
26.828475952148438,-1.18,0.35,11.29,11.35
26.842550039291382,-1.54,5.04,4.83,7.14
26.843955039978027,0.79,7.53,-3.13,8.19
26.85595417022705,3.99,-0.14,-9.48,10.28
26.8752179145813,-1.44,-0.57,-9.17,9.29
26.876637935638428,0.06,-6.76,-4.76,8.26
26.893782138824463,0.45,-7.86,0.43,7.88
26.895185947418213,0.79,-7.29,6.47,9.77
26.905520915985107,0.8,-2.64,8.61,9.04
26.925243854522705,-0.92,2.8,1.38,3.25
26.926856994628906,-2.48,7.37,-2.46,8.15
26.943482875823975,1.09,5.15,-5.87,7.88
26.94484806060791,-2.8,9.42,-7.88,12.59
26.955950021743774,-0.48,0.82,-1.62,1.87
26.975791931152344,1.21,-6.39,2.11,6.83
26.9774489402771,2.59,-3.7,-1.99,4.93
26.99362802505493,2.41,2.6,-8.29,9.01
26.99522590637207,-0.23,-0.4,-0.03,0.46
27.005542993545532,0.11,-5.8,13.63,14.81
27.025915145874023,-1.23,1.6,19.83,19.93
27.02745819091797,-2.39,9.91,5.85,11.75
27.043122053146362,-0.29,1.26,-10.27,10.35
27.04458498954773,-3.05,0.69,-14.71,15.03
27.05502986907959,-3.42,-2.2,-9.38,10.22
27.0744571685791,-2.24,-6.91,-3.78,8.18
27.076151847839355,-1.73,-7.03,2.07,7.52
27.094183921813965,-1.79,-6.35,7.11,9.69
27.0956711769104,-1.95,-2.36,8.93,9.44
27.10470199584961,-1.6,6.06,5.05,8.04
27.1267249584198,-4.05,14.94,1.3,15.53
27.12838101387024,2.04,4.39,-4.57,6.65
27.14394998550415,2.61,-1.63,-8.74,9.26
27.145509004592896,-1.08,-3.73,0.17,3.88
27.15490484237671,-0.33,-1.13,4.58,4.72
27.175039052963257,2.31,2.2,-5.24,6.13
27.176573991775513,2.71,0.96,-17.25,17.48
27.193944931030273,-0.32,-0.34,-10.13,10.14
27.195437908172607,-0.15,-6.52,2.21,6.88
27.204022884368896,-2.49,-4.46,16.13,16.91
27.223485946655273,-2.89,5.89,24.01,24.89
27.225138187408447,-3.25,13.31,6.65,15.22
27.23231315612793,4.66,-2.89,-14.99,15.96
27.242763996124268,1.99,-8.82,-20.1,22.04
27.254876136779785,-0.7,-5.54,-0.62,5.61
27.276731967926025,-0.25,-5.96,11.56,13.0
27.278668880462646,-2.18,0.83,7.36,7.72
27.282029151916504,-3.91,12.57,-2.96,13.49
27.291661977767944,1.52,-0.61,-4.91,5.17
27.304816007614136,2.79,-6.56,-4.55,8.45
27.325901985168457,1.94,-3.54,1.1,4.18
27.327584981918335,1.77,0.96,1.72,2.64
27.343740940093994,0.21,8.87,-2.19,9.13
27.34533405303955,-1.22,4.47,-0.71,4.68
27.35310697555542,-2.0,-1.14,4.79,5.31
27.373013019561768,-3.05,3.36,1.13,4.67
27.374534130096436,-1.63,-6.55,-3.78,7.73
27.381349086761475,-1.62,-4.09,-1.1,4.53
27.391852855682373,-1.08,-1.15,-1.93,2.49
27.403202056884766,-1.21,-5.31,-3.66,6.56
27.42315912246704,-2.08,1.62,2.96,3.96
27.424702167510986,-1.68,9.43,5.88,11.23
27.431364059448242,-0.65,0.0,5.65,5.68
27.44114398956299,-2.17,-1.83,4.34,5.18
27.452759981155396,1.01,5.76,-4.28,7.24
27.474781036376953,3.18,-1.37,-16.29,16.65
27.47655200958252,-0.26,-7.3,-5.23,8.98
27.480730056762695,0.94,-5.44,5.41,7.72
27.491247177124023,0.02,-0.19,6.57,6.57
27.502530097961426,-0.78,3.28,0.84,3.47
27.522951126098633,0.97,-5.62,4.87,7.49
27.52451205253601,-0.65,-3.54,9.34,10.0
27.530519008636475,-1.6,8.12,5.61,9.99
27.54094886779785,0.53,10.75,-7.31,13.01
27.552706956863403,-1.42,2.58,-14.6,14.89
27.57409906387329,-0.79,-6.82,-5.52,8.8
27.575522899627686,0.37,-8.27,3.32,8.91
27.58009099960327,0.53,-6.99,5.62,8.98
27.590455055236816,0.61,-4.03,0.11,4.07
27.602010011672974,0.0,-1.2,-1.52,1.93
27.62250304222107,-0.41,1.16,-0.02,1.23
27.624247074127197,-0.56,14.01,0.8,14.04
27.63060998916626,2.21,8.82,-1.1,9.15
27.64017605781555,-1.64,0.36,-0.23,1.69
27.652350902557373,-1.59,-4.09,2.0,4.82
27.673022985458374,-1.46,-0.21,-2.24,2.68
27.674710035324097,1.83,-3.32,-9.65,10.36
27.67973303794861,1.29,-6.68,-3.86,7.82
27.689913034439087,0.83,-6.08,7.26,9.5
27.70180892944336,-0.32,1.71,15.0,15.1
27.722734928131104,-0.91,16.72,9.49,19.24
27.724337100982666,1.04,4.42,2.87,5.37
27.72942805290222,2.4,-0.46,-8.39,8.73
27.7397940158844,3.34,2.02,-21.46,21.81
27.751386165618896,0.17,-5.29,-14.37,15.31
27.770889043807983,-0.21,-6.11,-2.69,6.67
27.7723970413208,-0.53,-6.96,-1.78,7.2
27.77992606163025,-0.12,-8.28,1.21,8.36
27.793177127838135,0.55,-7.68,14.43,16.35
27.802088022232056,1.34,1.12,19.82,19.89
27.823405981063843,-2.54,9.55,13.4,16.64
27.82516098022461,-2.3,16.23,3.16,16.69
27.829035997390747,4.72,-3.18,-13.08,14.26
27.839827060699463,0.03,-0.44,-19.07,19.07
27.851253032684326,-1.33,2.07,-9.12,9.44
27.873600959777832,0.92,-7.82,-5.46,9.58
27.875266075134277,0.6,-7.75,1.11,7.85
27.878867149353027,1.01,-6.56,10.09,12.07
27.889106035232544,1.15,-0.77,12.53,12.6
27.900868892669678,-0.1,6.99,6.91,9.82
27.921359062194824,-0.25,11.73,3.15,12.14
27.922913074493408,2.91,-0.5,-8.65,9.14
27.928988933563232,0.64,5.89,-14.85,15.98
27.943098068237305,-1.83,2.42,-9.56,10.02
27.95037317276001,0.35,-8.06,1.86,8.27
27.97046184539795,-0.67,-5.53,10.92,12.25
27.972018003463745,-1.43,4.69,4.99,6.99
27.978538990020752,-0.78,10.04,-8.86,13.41
27.99327301979065,-0.35,-4.92,-11.99,12.96
27.999996185302734,-1.02,-8.23,4.75,9.55
28.020564079284668,-1.62,-1.85,15.65,15.84
28.02229118347168,-0.83,1.91,8.23,8.48
28.02814507484436,0.24,-2.68,-3.08,4.08
28.044234037399292,0.99,5.32,-10.89,12.16
28.04966402053833,-0.02,8.37,-9.42,12.6
28.07002592086792,0.53,-7.66,4.01,8.66
28.0717511177063,2.08,-7.93,12.97,15.34
28.078201055526733,1.8,-1.21,8.35,8.62
28.08790898323059,1.97,-2.7,-2.91,4.43
28.10015606880188,1.22,-2.32,-11.0,11.3
28.120296955108643,-1.12,-1.66,-4.94,5.33
28.12216305732727,-1.27,-2.34,5.8,6.38
28.127346992492676,-2.86,7.42,6.6,10.33
28.13763189315796,-0.9,14.47,-1.15,14.54
28.14908790588379,-0.5,6.13,-5.02,7.93
28.168583869934082,-2.27,-0.29,-4.41,4.96
28.170658111572266,-1.13,-8.42,-3.0,9.0
28.177311897277832,-1.7,-8.3,-2.95,8.97
28.187561988830566,-0.3,-7.74,1.51,7.89
28.199275016784668,1.57,-6.89,7.36,10.2
28.21918487548828,2.52,-2.96,7.42,8.37
28.220988035202026,1.22,-0.15,-1.13,1.66
28.227205991744995,-2.44,10.94,-3.61,11.77
28.23713207244873,1.14,16.03,-1.15,16.11
28.24941110610962,0.0,4.89,0.14,4.89
28.27158784866333,-0.51,-4.87,1.7,5.18
28.273759841918945,0.57,-7.97,-3.07,8.55
28.27728796005249,2.69,-3.65,-10.97,11.87
28.294251918792725,0.34,-2.76,-6.32,6.9
28.29840087890625,0.02,-7.01,5.72,9.04
28.320518016815186,-0.59,-2.47,15.19,15.4
28.322432041168213,-2.62,5.18,11.51,12.89
28.327120065689087,-2.92,6.09,1.81,6.99
28.34428095817566,1.44,4.11,-12.17,12.92
28.347620964050293,1.01,9.56,-22.74,24.68
28.366127967834473,0.03,-5.22,-11.08,12.24
28.367763996124268,0.12,-8.7,3.98,9.56
28.376986026763916,0.29,-8.03,22.33,23.73
28.386563062667847,0.75,-0.17,23.47,23.48
28.39849305152893,-2.7,8.5,-1.79,9.09
28.417663097381592,1.37,8.86,-19.32,21.29
28.41934585571289,4.57,0.46,-18.61,19.16
28.426625967025757,-1.73,3.85,-6.83,8.02
28.43622899055481,-0.29,-6.09,-6.22,8.7
28.448182106018066,-0.57,-6.79,-3.88,7.84
28.46697187423706,0.11,-7.16,1.02,7.23
28.46866798400879,0.47,-4.91,16.14,16.87
28.476622104644775,1.93,8.1,26.24,27.52
28.485957145690918,-0.94,18.99,9.42,21.21
28.49797487258911,3.78,-5.88,-5.41,8.83
28.517136096954346,2.84,-11.46,-14.7,18.85
28.518817901611328,0.52,1.04,-15.12,15.16
28.52683687210083,-1.39,2.4,-7.34,7.84
28.535426139831543,-1.63,-7.27,-2.65,7.9
28.54743504524231,-0.95,-6.18,5.25,8.16
28.566323041915894,-0.89,-1.08,8.77,8.88
28.567836046218872,-1.53,7.2,6.55,9.85
28.57688617706299,-0.64,15.78,3.92,16.27
28.585328102111816,2.42,-1.94,-0.03,3.1
28.597425937652588,1.28,-8.01,-4.17,9.12
28.61614203453064,-0.44,-1.95,-2.07,2.87
28.61761498451233,-0.64,-0.71,1.44,1.72
28.627376079559326,-0.2,-3.11,0.4,3.14
28.63516402244568,0.32,2.74,0.16,2.76
28.647034168243408,0.14,9.4,-2.18,9.65
28.665961980819702,-0.75,-0.24,0.06,0.78
28.66753602027893,-0.94,-3.82,1.86,4.35
28.67689085006714,-0.76,2.44,-7.59,8.0
28.684601068496704,-0.14,-7.1,-9.77,12.07
28.696295022964478,-0.01,-7.67,2.15,7.96
28.715662002563477,-0.07,-2.16,7.98,8.26
28.717308044433594,-0.36,1.42,8.42,8.54
28.726412057876587,-0.92,10.58,3.07,11.05
28.734485149383545,-0.28,6.74,-1.9,7.0
28.74659013748169,0.2,-7.55,-8.19,11.14
28.765554904937744,0.22,-7.19,-3.88,8.17
28.767024040222168,-0.22,-3.33,0.74,3.41
28.776965141296387,0.13,-1.27,-0.25,1.3
28.78411293029785,-0.93,-2.34,3.01,3.92
28.79630398750305,-1.82,6.92,5.84,9.23
28.816083908081055,0.02,6.34,5.46,8.36
28.817533016204834,-0.01,-4.14,0.66,4.19
28.82682991027832,-0.36,2.26,-3.38,4.08
28.834050178527832,2.4,5.66,-9.49,11.3
28.8461971282959,1.41,-1.59,-11.06,11.26
28.86541199684143,0.09,-5.02,-1.77,5.32
28.86708116531372,-0.53,-4.93,4.72,6.84
28.876884937286377,-3.72,4.27,8.45,10.17
28.8835711479187,-4.11,8.12,6.77,11.34
28.895549058914185,-1.08,-2.49,3.9,4.75
28.913508892059326,1.23,-0.4,-2.6,2.9
28.914987087249756,4.43,-3.23,-9.34,10.83
28.92721199989319,0.55,-5.32,-2.95,6.1
28.933009147644043,0.26,0.73,2.62,2.73
28.945756912231445,0.22,7.46,-1.34,7.58
28.963731050491333,-1.73,5.94,-9.1,11.0
28.96526002883911,-2.37,-3.22,-6.7,7.8
28.976797103881836,-0.44,-6.93,2.36,7.33
28.982962131500244,0.55,-5.06,9.18,10.49
28.995436191558838,0.66,-0.16,9.29,9.31
29.01297092437744,0.02,3.7,6.15,7.17
29.01451301574707,0.7,-3.95,9.56,10.36
29.0265531539917,-0.55,-3.28,5.78,6.66
29.03240203857422,1.08,7.96,-2.6,8.44
29.045289039611816,4.4,7.26,-14.62,16.9
29.06332302093506,-0.82,4.48,-17.79,18.36
29.06482696533203,-1.71,0.44,-11.61,11.74
29.076634883880615,-1.74,-4.74,-6.37,8.12
29.082218170166016,-0.57,-8.47,1.2,8.57
29.09569501876831,-1.94,-6.86,14.55,16.2
29.11496591567993,-1.66,0.25,18.19,18.26
29.116459846496582,-2.65,10.54,0.72,10.89
29.127084016799927,-0.49,9.92,-9.31,13.61
29.13198184967041,4.78,-6.55,-13.27,15.55
29.14473009109497,-0.68,0.42,-0.14,0.81
29.164303064346313,1.22,-3.35,9.61,10.25
29.16597318649292,-0.05,1.67,11.07,11.19
29.17719006538391,-0.59,-2.3,4.01,4.66
29.182281970977783,-0.11,-0.62,-4.77,4.81
29.194314002990723,0.78,10.95,-20.61,23.35
29.21445608139038,-3.43,0.9,-21.46,21.75
29.21608805656433,-1.31,-8.15,-2.85,8.73
29.221531867980957,-0.64,-8.09,11.4,13.99
29.231685161590576,-0.64,-6.66,25.55,26.41
29.243908882141113,0.68,0.75,14.69,14.72
29.262181043624878,-3.13,10.27,-0.9,10.77
29.263822078704834,2.08,6.32,-10.72,12.61
29.2776620388031,4.01,-0.73,-18.04,18.49
29.281107902526855,-1.83,-6.05,-4.8,7.93
29.294011116027832,-0.38,-8.04,9.31,12.3
29.312846183776855,-2.01,-3.92,14.44,15.09
29.314313888549805,-1.19,-0.63,4.9,5.08
29.327337980270386,-1.64,1.61,-3.25,3.98
29.331221103668213,-1.54,10.5,-6.77,12.58
29.343641996383667,2.48,7.5,-11.32,13.8
29.361865997314453,-2.47,-2.31,-7.05,7.81
29.36332893371582,-0.95,-7.77,5.3,9.45
29.376929998397827,-3.04,-4.47,13.73,14.75
29.38056516647339,-3.67,-0.87,10.5,11.15
29.39316415786743,-2.18,0.08,3.14,3.82
29.41121196746826,0.87,0.38,-8.56,8.61
29.41271686553955,6.1,0.04,-18.96,19.91
29.426974058151245,0.73,2.19,-8.53,8.83
29.430429935455322,-0.54,1.02,0.64,1.31
29.443583965301514,-0.75,1.5,2.09,2.67
29.462630033493042,-1.89,-3.34,6.72,7.73
29.464251041412354,-1.51,-7.25,14.09,15.91
29.47722601890564,-1.61,2.18,12.38,12.67
29.48032283782959,-1.21,17.56,0.79,17.61
29.493388175964355,7.1,9.06,-13.52,17.75
29.512220859527588,0.87,-3.28,-20.54,20.81
29.513780117034912,-0.92,-8.36,-10.99,13.83
29.527016162872314,-0.66,-7.31,-0.85,7.38
29.529901027679443,-1.32,-7.73,15.14,17.05
29.541924953460693,-3.45,-4.95,21.09,21.93
29.560651063919067,-1.31,1.11,6.84,7.05
29.562170028686523,-1.63,1.91,-13.58,13.81
29.57763695716858,-2.1,10.75,-22.21,24.76
29.57946801185608,4.04,1.27,-3.07,5.23
29.59293794631958,-1.67,-6.77,6.03,9.21
29.61166000366211,-3.06,-0.44,11.37,11.78
29.61313486099243,-2.94,6.34,3.71,7.91
29.627279043197632,2.69,-3.87,-11.74,12.65
29.629387855529785,0.29,-6.66,-9.36,11.49
29.641723155975342,-1.07,-1.02,10.78,10.88
29.66050910949707,-0.72,9.94,19.77,22.13
29.662086009979248,-0.95,5.66,7.43,9.38
29.678298950195312,-0.23,-4.58,-5.4,7.08
29.679702043533325,1.21,1.28,-18.87,18.95
29.691072940826416,-1.5,-0.05,-11.59,11.68
29.70894503593445,-0.74,-8.58,4.21,9.58
29.710406064987183,-0.63,-3.34,10.01,10.57
29.727943897247314,-1.62,8.09,5.96,10.17
29.72934603691101,1.99,7.14,-0.16,7.41
29.74107313156128,4.5,-7.85,4.09,9.92
29.758678913116455,2.39,-0.45,-0.61,2.5
29.760161876678467,-0.41,6.75,-8.77,11.07
