time,ax,ay,az,atotal
0.01165318489074707,0.02,-0.02,-0.57,0.57
0.01739192008972168,0.02,-0.17,-0.14,0.22
0.020153045654296875,0.01,-0.16,0.29,0.33
0.0369260311126709,-0.04,-0.07,0.48,0.48
0.03924107551574707,-0.04,-0.04,0.45,0.45
0.05812406539916992,0.04,-0.1,0.31,0.32
0.06068015098571777,0.16,-0.19,0.2,0.31
0.0670769214630127,0.23,-0.26,0.09,0.35
0.07082390785217285,0.15,-0.27,0.01,0.3
0.08365201950073242,0.0,-0.19,-0.04,0.19
0.09474802017211914,-0.07,-0.11,-0.13,0.18
0.1009218692779541,-0.04,-0.09,-0.25,0.26
0.11018586158752441,-0.04,-0.07,-0.23,0.24
0.12046694755554199,-0.1,0.01,-0.09,0.13
0.1300499439239502,-0.09,0.06,-0.12,0.16
0.1412520408630371,0.06,-0.01,-0.18,0.19
0.15060019493103027,0.2,-0.08,-0.15,0.26
0.1599740982055664,0.15,-0.09,-0.14,0.22
0.17026209831237793,0.02,-0.06,-0.24,0.24
0.1796400547027588,-0.03,-0.05,-0.18,0.18
0.19098687171936035,-0.03,-0.06,-0.11,0.12
0.19950199127197266,-0.03,-0.05,-0.12,0.13
0.2097032070159912,-0.08,-0.05,-0.14,0.16
0.21980690956115723,-0.14,-0.09,-0.13,0.21
0.22949719429016113,-0.06,-0.06,-0.13,0.15
0.24021315574645996,0.01,-0.06,-0.16,0.17
0.24977803230285645,-0.01,-0.09,-0.25,0.26
0.25940704345703125,-0.03,-0.11,-0.34,0.35
0.26981616020202637,0.0,-0.12,-0.39,0.4
0.27896618843078613,0.02,-0.09,-0.34,0.35
0.28987908363342285,0.05,-0.04,-0.25,0.25
0.2992079257965088,0.12,0.05,-0.08,0.15
0.30930304527282715,0.07,0.12,0.12,0.18
0.3191039562225342,-0.08,0.08,0.04,0.12
0.3289811611175537,-0.08,-0.09,-0.35,0.37
0.3397970199584961,0.03,-0.22,-0.61,0.64
0.34890294075012207,0.04,-0.24,-0.65,0.69
0.35909199714660645,-0.08,-0.17,-0.65,0.67
0.36914706230163574,-0.19,-0.1,-0.56,0.59
0.37911295890808105,-0.22,-0.12,-0.51,0.56
0.39011120796203613,-0.09,-0.13,-0.57,0.59
0.39893221855163574,0.15,-0.11,-0.54,0.57
0.40862607955932617,0.29,-0.03,-0.36,0.46
0.41901302337646484,0.27,0.14,-0.17,0.34
0.42881202697753906,0.13,0.26,-0.07,0.29
0.440000057220459,0.01,0.24,-0.01,0.24
0.44882798194885254,0.0,0.15,0.01,0.15
0.458453893661499,0.02,0.09,0.02,0.09
0.4688708782196045,-0.04,0.04,0.0,0.05
0.47836804389953613,-0.07,0.0,0.04,0.08
0.48957109451293945,0.01,0.08,0.11,0.13
0.4980599880218506,0.05,0.21,0.07,0.22
0.5083260536193848,0.08,0.26,-0.06,0.27
0.5182790756225586,0.05,0.21,-0.09,0.23
0.5282561779022217,-0.04,0.15,-0.01,0.15
0.5412352085113525,-0.12,0.16,0.04,0.2
0.5479118824005127,-0.11,0.22,0.01,0.24
0.5578100681304932,-0.01,0.27,-0.01,0.27
0.5680601596832275,0.11,0.3,-0.03,0.32
0.5781140327453613,0.17,0.28,-0.06,0.33
0.590749979019165,0.13,0.21,-0.01,0.24
0.5978128910064697,-0.01,0.14,0.01,0.14
0.6075351238250732,-0.17,0.03,-0.11,0.2
0.6177890300750732,-0.3,-0.14,-0.31,0.45
0.6280159950256348,-0.36,-0.18,-0.44,0.59
0.640984058380127,-0.43,-0.04,-0.49,0.65
0.6473360061645508,-0.51,0.06,-0.38,0.63
0.6574270725250244,-0.55,0.07,-0.11,0.56
0.6681292057037354,-0.48,-0.04,0.04,0.48
0.6775991916656494,-0.36,-0.09,0.31,0.48
0.6904850006103516,-0.22,0.02,0.63,0.66
0.696958065032959,-0.13,0.06,0.67,0.68
0.7073090076446533,-0.02,-0.02,0.49,0.49
0.7173349857330322,-0.01,-0.02,0.24,0.24
0.7274858951568604,-0.1,-0.03,-0.03,0.1
0.7408230304718018,-0.25,-0.07,-0.12,0.28
0.7467501163482666,-0.64,-0.08,-0.02,0.64
0.7569630146026611,-0.8,0.02,0.23,0.83
0.7674450874328613,-0.71,-0.09,0.4,0.81
0.777475118637085,-0.53,-0.32,0.57,0.84
0.7915389537811279,-0.41,-0.39,0.66,0.86
0.7966139316558838,-0.36,-0.3,0.65,0.8
0.8067491054534912,-0.35,-0.2,0.52,0.65
0.8170759677886963,-0.28,-0.18,0.31,0.45
0.8264482021331787,-0.06,-0.24,0.01,0.24
0.8394091129302979,0.1,-0.23,-0.05,0.25
0.8463180065155029,-0.17,-0.14,0.08,0.23
0.8562262058258057,-0.35,-0.15,-0.03,0.38
0.8667500019073486,-0.25,-0.2,0.03,0.32
0.8766400814056396,-0.16,-0.24,0.1,0.3
0.8902552127838135,-0.08,-0.23,-0.04,0.24
0.8959550857543945,-0.04,-0.3,-0.16,0.34
0.9066810607910156,-0.02,-0.28,-0.02,0.28
0.9162051677703857,-0.11,-0.18,0.19,0.28
0.9268209934234619,-0.13,-0.29,-0.12,0.33
0.9403989315032959,-0.07,-0.45,-0.33,0.56
0.9456009864807129,-0.07,-0.46,-0.25,0.52
0.9560999870300293,-0.1,-0.43,-0.41,0.6
0.9658448696136475,-0.06,-0.42,-0.77,0.87
0.9755241870880127,-0.09,-0.43,-0.91,1.01
0.9887559413909912,-0.11,-0.38,-0.77,0.86
0.9956440925598145,-0.11,-0.3,-0.54,0.62
1.00553297996521,-0.11,-0.27,-0.48,0.56
1.0158040523529053,-0.17,-0.33,-0.5,0.62
1.025575876235962,-0.22,-0.39,-0.53,0.69
1.0402791500091553,-0.09,-0.3,-0.68,0.74
1.0452659130096436,0.22,0.09,-0.51,0.56
1.0553300380706787,0.5,0.36,-0.57,0.83
1.065237045288086,0.78,0.36,-0.99,1.31
1.075226068496704,0.9,0.36,-0.7,1.19
1.0887019634246826,0.92,0.23,-0.56,1.1
1.09483003616333,0.95,0.07,-0.69,1.17
1.1052229404449463,0.72,-0.07,-0.66,0.97
1.1151058673858643,0.37,-0.08,-0.29,0.47
1.1257011890411377,0.16,0.01,-0.04,0.16
1.1388740539550781,-0.02,0.13,0.23,0.26
1.1450879573822021,0.02,0.25,0.63,0.67
1.1548480987548828,0.29,0.28,0.84,0.93
1.1647188663482666,0.44,0.21,0.98,1.09
1.1748270988464355,0.44,0.2,1.09,1.19
1.1874980926513672,0.44,0.23,1.0,1.11
1.194338083267212,0.51,0.3,0.79,0.98
1.2045810222625732,0.55,0.42,0.65,0.94
1.2144150733947754,0.54,0.46,0.61,0.93
1.224642038345337,0.52,0.38,0.48,0.8
1.2384569644927979,0.57,0.27,0.21,0.66
1.2442371845245361,0.54,0.18,-0.12,0.58
1.2545230388641357,0.37,0.1,-0.33,0.5
1.26466703414917,0.23,0.13,-0.28,0.38
1.2747700214385986,0.15,0.18,-0.15,0.27
1.288956880569458,0.09,0.16,0.04,0.18
1.293884038925171,0.01,0.12,0.18,0.21
1.30405592918396,-0.05,0.05,0.19,0.2
1.3136188983917236,-0.07,-0.04,0.09,0.12
1.3244779109954834,-0.05,-0.04,0.05,0.08
1.3384859561920166,-0.06,-0.03,0.0,0.06
1.343635082244873,-0.13,-0.08,-0.03,0.15
1.35371994972229,-0.2,-0.09,0.06,0.22
1.3639440536499023,-0.27,-0.07,0.15,0.31
1.3742668628692627,-0.31,-0.12,0.02,0.33
1.3889009952545166,-0.46,-0.14,-0.04,0.48
1.3933160305023193,-0.54,-0.04,0.14,0.55
1.4038679599761963,-0.55,0.05,0.25,0.6
1.4134371280670166,-0.5,-0.03,0.14,0.52
1.4239089488983154,-0.39,-0.21,-0.13,0.46
1.438405990600586,-0.28,-0.29,0.08,0.41
1.4431731700897217,-0.31,-0.22,0.64,0.74
1.4532010555267334,-0.36,-0.24,-0.2,0.47
1.4633550643920898,-0.29,-0.28,-0.59,0.71
1.4735848903656006,-0.29,-0.31,-0.48,0.64
1.4879519939422607,-0.39,-0.32,-0.3,0.58
1.4931340217590332,-0.35,-0.27,-0.52,0.68
1.5030360221862793,-0.22,-0.21,-0.98,1.02
1.5131430625915527,-0.12,-0.14,-1.2,1.21
1.5236351490020752,-0.13,-0.11,-1.19,1.2
1.5390920639038086,-0.29,-0.05,-1.4,1.43
1.5425388813018799,-0.45,-0.05,-1.47,1.53
1.5531079769134521,-0.52,-0.06,-1.16,1.27
1.5629010200500488,-0.44,0.0,-0.68,0.8
1.5728940963745117,-0.37,0.08,-0.21,0.43
1.5869591236114502,-0.33,0.13,-0.06,0.35
1.592195987701416,-0.21,0.13,0.0,0.24
1.6027519702911377,-0.09,0.18,-0.06,0.21
1.612497091293335,-0.04,0.26,0.04,0.26
1.623548984527588,-0.16,0.47,0.41,0.64
1.6388390064239502,-0.27,0.34,0.62,0.75
1.6421968936920166,-0.01,0.19,0.89,0.91
1.6530559062957764,0.23,0.35,0.92,1.01
1.662229061126709,0.34,0.62,0.78,1.05
1.6722018718719482,0.28,0.77,0.69,1.07
1.6847059726715088,0.23,0.59,0.49,0.8
1.6922152042388916,0.15,0.21,0.35,0.43
1.7023918628692627,-0.09,-0.07,0.31,0.33
1.712580919265747,-0.22,-0.23,0.25,0.4
1.7225401401519775,-0.36,-0.29,0.11,0.47
1.7378060817718506,-0.53,-0.44,-0.15,0.7
1.7416350841522217,-0.46,-0.59,-0.43,0.86
1.7524759769439697,-0.26,-0.55,-0.47,0.76
1.7618460655212402,-0.14,-0.38,-0.28,0.49
1.7721819877624512,-0.01,-0.21,-0.21,0.29
1.7861011028289795,-0.01,-0.23,-0.32,0.39
1.7912261486053467,0.02,-0.39,-0.52,0.65
1.8028960227966309,-0.01,-0.75,-0.52,0.91
1.8113691806793213,0.06,-0.87,-0.54,1.02
1.8213880062103271,0.03,-0.74,-0.59,0.94
1.835345983505249,0.02,-0.65,-0.44,0.78
1.8415071964263916,0.09,-0.5,-0.26,0.57
1.8517470359802246,0.34,-0.32,-0.18,0.5
1.8615660667419434,0.79,-0.08,0.01,0.79
1.8716390132904053,1.01,0.07,0.28,1.05
1.88657808303833,1.01,0.03,-0.08,1.01
1.8906981945037842,1.01,-0.12,-0.35,1.07
1.902637004852295,0.96,-0.25,-0.42,1.07
1.910693883895874,0.71,-0.17,0.14,0.74
1.9210560321807861,0.46,0.03,0.64,0.78
1.933845043182373,0.25,-0.01,0.61,0.65
1.940769910812378,0.13,-0.16,0.46,0.5
1.9522888660430908,0.16,-0.22,0.4,0.48
1.9607951641082764,0.37,-0.01,0.56,0.67
1.9712741374969482,0.63,0.24,0.48,0.82
1.9852850437164307,0.7,0.14,0.15,0.72
1.9904448986053467,0.53,-0.12,0.08,0.54
2.0029399394989014,-0.03,-0.23,0.33,0.4
2.0104548931121826,-0.61,-0.21,0.4,0.75
2.022304058074951,-0.83,-0.14,0.23,0.87
2.038562059402466,-0.58,-0.01,-0.14,0.59
2.0405590534210205,-0.15,-0.02,-0.64,0.65
2.0530810356140137,0.04,0.0,-0.91,0.91
2.0605030059814453,-0.1,-0.03,-0.83,0.83
2.0701770782470703,-1.15,-1.07,-0.45,1.63
2.0831849575042725,-1.41,-0.39,0.23,1.48
2.089848041534424,-1.24,0.44,0.39,1.37
2.1024680137634277,-0.94,0.24,0.31,1.01
2.1096839904785156,-0.46,-0.15,-0.09,0.49
2.120331048965454,0.03,-0.43,-0.35,0.55
2.134181022644043,-0.02,-0.81,-0.37,0.89
2.13971209526062,-0.47,-1.04,-0.24,1.16
2.152838945388794,-0.87,-0.84,0.09,1.21
2.1594622135162354,-1.01,-0.6,0.33,1.22
2.1703460216522217,-0.83,-0.35,0.21,0.92
2.1847879886627197,-0.42,-0.03,-0.01,0.42
2.1897170543670654,-0.13,0.19,-0.18,0.29
2.2028191089630127,-0.78,0.02,-0.42,0.88
2.2091891765594482,-1.17,0.12,-0.78,1.41
2.2197999954223633,-1.01,0.08,-0.41,1.09
2.235018014907837,-0.28,0.54,0.0,0.6
2.239000082015991,0.8,1.75,0.38,1.96
2.2524712085723877,1.4,1.52,0.48,2.12
2.258923053741455,1.95,0.32,0.32,2.0
2.2703020572662354,2.13,0.01,-0.05,2.13
2.284437894821167,1.85,-0.33,-0.4,1.92
2.2887380123138428,1.35,-0.25,-1.07,1.74
2.3031651973724365,0.3,-0.51,-1.4,1.51
2.3086860179901123,-0.05,-0.62,-0.95,1.13
2.3192050457000732,-0.15,-0.6,-0.72,0.94
2.3323681354522705,-0.07,-0.46,-0.48,0.66
2.3387610912323,-0.06,-0.39,0.02,0.39
2.3528549671173096,-0.21,-0.49,-0.01,0.53
2.358489990234375,-0.84,-0.5,-0.03,0.97
2.3691320419311523,-1.39,-0.11,0.44,1.46
2.3822860717773438,-1.41,0.15,0.51,1.5
2.388578176498413,-1.0,0.15,0.34,1.06
2.40279221534729,-0.54,-0.16,-0.15,0.58
2.4083969593048096,-0.01,-0.64,-0.65,0.91
2.4185149669647217,0.85,-0.92,-0.72,1.44
2.4318978786468506,1.46,-0.28,-0.43,1.54
2.4382669925689697,1.19,0.65,-0.66,1.5
2.451831102371216,0.75,0.35,-0.74,1.11
2.4580061435699463,0.17,0.19,-1.44,1.46
2.4686172008514404,-0.34,-0.24,-2.1,2.14
2.481825113296509,-0.52,0.06,-1.59,1.67
2.4878220558166504,-0.54,0.27,-0.7,0.92
2.5013349056243896,-0.35,0.28,0.08,0.45
2.5075790882110596,-0.6,0.12,0.39,0.72
2.5190680027008057,-0.82,0.2,0.15,0.85
2.5347230434417725,-0.41,-0.01,-0.42,0.58
2.538098096847534,0.63,-1.14,-1.27,1.81
2.5523459911346436,0.95,-2.33,-1.0,2.7
2.5579380989074707,0.79,-2.67,1.56,3.19
2.5681049823760986,0.21,-2.45,4.18,4.84
2.5819928646087646,-0.41,-1.32,4.8,4.99
2.587538957595825,-0.62,-0.8,3.12,3.28
2.6020190715789795,-0.33,-1.31,0.7,1.52
2.6072728633880615,-0.25,-1.48,-1.42,2.06
2.6181089878082275,-0.16,-1.28,-2.96,3.22
2.6310040950775146,-0.27,-0.77,-2.79,2.9
2.637517213821411,0.36,-0.62,-1.27,1.45
2.652500867843628,0.45,-0.02,0.01,0.45
2.657076120376587,-0.62,1.09,1.34,1.83
2.668440103530884,-1.24,2.29,0.73,2.7
2.6815900802612305,-0.24,1.89,-0.18,1.91
2.686923027038574,0.33,1.45,-0.69,1.63
2.7016141414642334,0.03,0.95,-1.87,2.09
2.7068049907684326,-0.51,0.27,-2.72,2.78
2.7182869911193848,-0.07,0.11,-1.38,1.38
2.731468915939331,-0.44,0.11,-0.59,0.74
2.7370200157165527,-0.61,0.09,0.26,0.66
2.752876043319702,0.08,0.34,0.93,0.99
2.7567999362945557,0.16,0.29,0.78,0.84
2.769120931625366,0.18,1.0,1.62,1.91
2.7834930419921875,-0.28,1.86,1.24,2.25
2.7863190174102783,-0.88,1.49,0.55,1.81
2.803014039993286,0.24,0.47,0.78,0.94
2.806102991104126,-0.06,0.36,0.15,0.39
2.8191330432891846,-0.42,0.09,-0.1,0.44
2.8326640129089355,-0.21,-0.3,-0.31,0.47
2.8360490798950195,0.08,-0.23,-0.57,0.61
2.8526599407196045,0.76,-0.37,-0.31,0.9
2.85573410987854,0.83,-0.21,0.19,0.87
2.866199016571045,0.46,-0.17,0.24,0.54
2.8796939849853516,0.18,-0.3,0.1,0.36
2.886181116104126,-0.17,-0.44,0.1,0.48
2.8958890438079834,-0.1,-0.65,-0.37,0.75
2.905745029449463,0.43,-0.91,-0.58,1.16
2.915743112564087,0.86,-0.83,-0.98,1.54
2.9295620918273926,1.0,-0.48,-1.05,1.52
2.9357779026031494,0.43,-0.03,-1.24,1.31
2.945611000061035,-0.4,-0.28,-0.37,0.61
2.9558441638946533,-0.77,-1.01,0.32,1.3
2.9657819271087646,-0.69,-0.75,0.71,1.24
2.9808661937713623,-0.44,0.07,0.12,0.46
2.9851160049438477,0.52,0.36,1.2,1.35
3.00541615486145,-1.11,-0.41,1.82,2.17
3.006977081298828,-1.02,-0.69,2.69,2.95
3.019700050354004,-0.15,0.58,4.05,4.09
3.035181999206543,-3.5,0.1,1.26,3.72
3.037126064300537,-5.69,-1.73,-1.7,6.18
3.0523769855499268,2.44,-2.52,-2.36,4.22
3.0548150539398193,0.19,0.41,-2.34,2.38
3.068470001220703,0.23,1.62,-2.51,2.99
3.082105875015259,0.42,0.95,-2.28,2.5
3.0847580432891846,0.43,1.09,-1.14,1.63
3.1021230220794678,0.88,2.71,-0.4,2.87
3.104727029800415,1.14,2.63,-0.43,2.89
3.1179630756378174,0.81,1.22,-0.26,1.48
3.1318209171295166,-0.8,-0.81,0.24,1.16
3.1344878673553467,-1.12,-0.64,-0.46,1.36
3.151827096939087,-1.2,-0.57,-0.83,1.56
3.1543080806732178,-1.28,-1.04,-0.48,1.71
3.1684000492095947,-0.69,-1.22,0.02,1.4
3.182360887527466,-0.41,-0.57,0.1,0.7
3.1844050884246826,-0.24,-0.06,-0.3,0.38
3.2029969692230225,0.87,0.13,-0.48,1.0
3.2045328617095947,1.83,2.27,-0.87,3.04
3.2184560298919678,2.63,3.48,-1.14,4.5
3.2332241535186768,2.3,2.18,-0.34,3.18
3.2352399826049805,1.34,1.07,-0.03,1.71
3.2535390853881836,-0.21,0.52,-0.74,0.92
3.2551071643829346,-0.47,0.05,-0.23,0.52
3.2691500186920166,0.1,-0.5,0.53,0.73
3.2833411693573,0.04,-0.63,0.09,0.63
3.2854549884796143,-1.94,-0.18,-0.26,1.96
3.302628993988037,-5.59,0.51,0.09,5.61
3.304183006286621,-1.91,-0.47,0.1,1.96
3.3180770874023438,1.41,-1.06,0.38,1.8
3.3322341442108154,2.69,-0.78,0.79,2.91
3.334881067276001,2.6,-0.29,0.99,2.79
3.3527660369873047,0.61,0.38,1.51,1.67
3.354341983795166,-0.93,0.73,1.47,1.88
3.3690459728240967,-1.0,0.4,0.96,1.44
3.3833391666412354,-0.13,-0.04,0.28,0.31
3.385460138320923,0.92,0.01,-0.5,1.04
3.4025399684906006,1.22,0.06,-0.97,1.55
3.4041149616241455,0.71,-0.08,-0.99,1.22
3.4187071323394775,0.3,-0.34,-0.4,0.6
3.4330031871795654,-0.14,-0.39,0.36,0.54
3.435960054397583,-0.8,-0.09,0.62,1.01
3.455186128616333,-1.04,0.3,0.59,1.23
3.456770181655884,-0.44,0.08,0.12,0.46
3.462597131729126,0.15,-0.22,-0.35,0.43
3.477802038192749,0.28,-0.27,-0.43,0.57
3.4824790954589844,0.02,-0.2,-0.38,0.42
3.492872953414917,-0.26,-0.14,-0.48,0.56
3.502845048904419,-0.3,0.02,-0.65,0.71
3.51267409324646,-0.25,0.34,-0.54,0.68
3.5269429683685303,-0.01,0.59,-0.47,0.75
3.532449960708618,0.47,0.15,-1.12,1.22
3.5426461696624756,0.34,-0.19,-0.69,0.79
3.5526649951934814,-0.32,-0.05,0.23,0.39
3.5626320838928223,-0.54,0.37,1.06,1.24
3.576799154281616,-0.26,-0.04,0.97,1.0
3.582494020462036,0.26,-0.87,0.24,0.93
3.5923399925231934,0.04,-0.76,-0.16,0.77
3.6025478839874268,-0.61,-0.8,0.05,1.0
3.612169027328491,-0.93,-1.07,0.42,1.47
3.6265339851379395,-0.51,-1.23,-0.39,1.38
3.6318609714508057,0.5,-1.73,-1.31,2.22
3.6421639919281006,0.52,-2.85,-1.48,3.25
3.6523330211639404,-1.56,-1.09,-0.4,1.94
3.66192889213562,-2.15,2.61,1.22,3.59
3.676259994506836,-1.58,3.55,5.42,6.66
3.6814889907836914,-1.09,0.44,3.52,3.71
3.691986083984375,1.33,-2.44,0.37,2.8
3.7023398876190186,2.37,-0.42,-2.16,3.23
3.711560010910034,1.01,2.72,1.81,3.41
3.726234197616577,1.16,1.76,1.78,2.75
3.7313711643218994,0.75,1.39,-1.59,2.24
3.7416188716888428,4.09,-1.01,5.19,6.68
3.7515361309051514,0.8,-1.22,-2.26,2.68
3.7613980770111084,-2.68,0.43,-4.74,5.46
3.7759850025177,-2.13,1.32,-4.94,5.53
3.781283140182495,-0.59,0.87,-1.55,1.87
3.7912230491638184,0.54,-0.06,0.99,1.12
3.802011013031006,0.21,-0.64,0.93,1.14
3.8110082149505615,-0.14,-0.76,-0.15,0.78
3.8256239891052246,-0.98,0.27,0.11,1.02
3.830824136734009,-0.3,0.64,-0.06,0.7
3.840928077697754,0.1,0.49,-0.36,0.61
3.8510000705718994,-0.08,0.11,-0.62,0.63
3.8607308864593506,-0.06,0.02,-0.38,0.38
3.8760769367218018,0.08,-0.24,0.02,0.25
3.8805038928985596,0.06,-0.26,0.25,0.36
3.891197919845581,0.01,-0.09,-0.25,0.26
3.9008450508117676,0.14,0.01,-0.92,0.93
3.910930871963501,0.37,0.13,-1.02,1.09
3.9265501499176025,0.72,0.12,-0.86,1.12
3.930202007293701,0.76,-0.02,-0.66,1.0
3.9404819011688232,0.89,-0.94,0.75,1.49
3.950355052947998,-0.61,-0.25,2.0,2.1
3.9604032039642334,-2.03,1.6,0.5,2.63
3.9758288860321045,-1.45,0.52,-0.07,1.54
3.979820966720581,-0.34,-0.59,-0.07,0.68
3.9903829097747803,0.62,-0.64,-0.51,1.02
4.000333070755005,0.72,-0.26,-1.0,1.25
4.01000714302063,0.51,0.02,-0.52,0.72
4.025644063949585,0.07,0.05,0.77,0.77
4.0297040939331055,-0.62,-0.01,1.93,2.02
4.039860963821411,-0.79,-0.15,0.0,0.8
4.049839019775391,-0.36,-0.1,-0.52,0.64
4.059760093688965,-0.31,-0.01,-0.38,0.49
4.0755579471588135,-0.59,0.13,0.5,0.78
4.07942795753479,-0.89,0.2,1.0,1.35
4.089738130569458,-0.54,0.14,0.52,0.76
4.099540948867798,0.1,0.06,-0.02,0.11
4.10995888710022,0.35,-0.28,-0.38,0.58
4.125586986541748,0.19,-0.37,-0.5,0.65
4.129435062408447,0.04,-0.49,-0.49,0.69
4.139477014541626,-0.26,-0.34,-0.78,0.88
4.149506092071533,-0.26,-0.13,-1.21,1.24
4.159247159957886,0.03,0.01,-0.58,0.58
4.1754090785980225,0.47,0.15,-0.23,0.54
4.178791046142578,0.5,0.31,-0.35,0.68
4.189204931259155,0.61,0.23,-0.02,0.65
4.198925018310547,0.85,0.16,-0.29,0.91
4.209168195724487,0.55,0.21,-0.27,0.64
4.22508692741394,0.13,0.0,-0.42,0.43
4.228697061538696,0.25,0.04,-0.25,0.35
4.239044904708862,0.58,0.17,-0.06,0.6
4.248739004135132,0.46,0.07,-0.3,0.55
4.2592689990997314,0.41,-0.14,-0.56,0.7
4.275462865829468,0.5,-0.14,-0.6,0.79
4.278414011001587,0.55,0.16,-0.56,0.8
4.28869891166687,0.41,0.43,-0.69,0.91
4.29836106300354,0.18,0.16,0.08,0.25
4.308789968490601,-0.09,-0.06,0.44,0.45
4.324744939804077,-0.53,-0.12,0.49,0.73
4.3284220695495605,-0.49,-0.3,0.62,0.84
4.33837103843689,-0.2,-0.37,0.27,0.49
4.348436117172241,-0.03,-0.14,-0.02,0.14
4.358484983444214,0.1,0.01,-0.22,0.24
4.374505996704102,0.07,0.04,-0.29,0.3
4.377845048904419,0.04,-0.05,-0.2,0.21
4.3881518840789795,0.0,-0.15,-0.08,0.17
4.398048162460327,-0.09,-0.16,0.33,0.37
4.408329010009766,-0.36,-0.12,0.53,0.65
4.424551010131836,-0.49,-0.04,-0.07,0.49
4.427631139755249,-0.24,-0.11,-0.54,0.6
4.438287973403931,-0.22,-0.19,-0.12,0.31
4.447806119918823,-0.57,-0.22,0.76,0.97
4.458130121231079,-0.83,-0.23,0.97,1.29
4.472807168960571,-0.61,-0.26,0.44,0.79
4.477330923080444,-0.35,-0.18,0.0,0.39
4.487653017044067,-0.46,-0.27,0.07,0.53
4.497668981552124,-0.72,0.03,0.17,0.74
4.507610082626343,-0.43,-0.63,0.13,0.77
4.52206015586853,-0.25,-0.86,0.24,0.92
4.527250051498413,-0.49,0.0,-0.44,0.65
4.537809133529663,-0.08,-0.07,-0.04,0.11
4.54769492149353,1.07,-0.17,-2.02,2.29
4.557329893112183,1.1,0.22,-2.3,2.55
4.571775197982788,-0.29,0.73,-0.36,0.86
4.576965093612671,-0.96,0.36,1.15,1.54
4.587545156478882,-1.47,-0.1,2.05,2.52
4.596779108047485,-1.7,-0.39,1.77,2.48
4.607217073440552,-1.27,-0.5,1.1,1.75
4.621863126754761,-0.71,-0.18,0.53,0.9
4.626929998397827,-0.57,0.05,0.25,0.62
4.637933969497681,-0.01,-0.3,-0.18,0.35
4.646926164627075,-0.07,-0.46,-0.54,0.71
4.657288074493408,-0.42,-0.33,-0.25,0.58
4.6718950271606445,-0.37,-0.15,0.31,0.5
4.676609992980957,-0.31,0.13,0.32,0.46
4.687237024307251,-0.19,0.47,-0.18,0.53
4.69676399230957,-0.18,0.42,-0.28,0.53
4.7065510749816895,0.38,0.15,-0.38,0.55
4.72119402885437,0.59,-0.48,0.29,0.81
4.726231098175049,0.32,-0.17,-0.97,1.03
4.73828911781311,-0.05,0.07,-1.11,1.11
4.746397018432617,-0.74,0.33,3.08,3.18
4.756265878677368,2.07,-1.53,-2.16,3.36
4.771005868911743,0.61,-2.68,-4.27,5.07
4.775944948196411,1.15,-1.23,-1.58,2.3
4.787882089614868,1.34,1.42,-0.73,2.08
4.795971155166626,0.9,2.72,0.13,2.86
4.806297063827515,0.56,1.63,0.51,1.79
4.821018934249878,-0.23,0.45,0.78,0.92
4.825750112533569,-0.81,-0.11,0.54,0.97
4.837578058242798,-0.63,-0.38,0.04,0.73
4.845830202102661,-0.31,-0.3,0.18,0.46
4.85575008392334,-0.23,-0.31,0.55,0.67
4.8703858852386475,-0.51,-0.24,-0.05,0.56
4.875739097595215,-0.98,0.05,-0.17,0.99
4.88740086555481,-0.85,-0.01,0.22,0.87
4.895517110824585,-0.41,0.11,0.54,0.68
4.905534982681274,-0.31,0.33,0.44,0.63
4.920148134231567,-0.68,-0.18,-0.17,0.72
4.9251391887664795,-1.1,-0.44,-0.01,1.18
4.937931060791016,0.3,0.29,0.22,0.47
4.945050954818726,0.78,0.41,-0.09,0.88
4.9550621509552,0.8,0.47,0.08,0.93
4.9704039096832275,0.61,0.39,0.03,0.72
4.974862098693848,-0.01,-0.03,-0.14,0.14
4.9883270263671875,-0.02,-0.52,-0.45,0.68
4.994736909866333,0.01,-0.49,-0.15,0.51
5.005164861679077,-0.05,-0.27,0.08,0.28
5.019808053970337,-0.05,0.01,-0.22,0.22
5.02472710609436,-0.02,0.11,-0.13,0.17
5.03800106048584,0.12,0.02,-0.23,0.26
5.044420003890991,0.07,0.02,-0.27,0.27
5.054680109024048,0.01,-0.04,0.1,0.1
5.069370985031128,-0.2,-0.18,0.27,0.38
5.074302911758423,-0.24,-0.04,0.21,0.32
5.087244033813477,-0.07,0.08,0.13,0.16
5.094477891921997,0.17,-0.2,0.11,0.28
5.104472875595093,0.07,-0.42,0.91,1.0
5.1196160316467285,0.22,-0.6,0.47,0.79
5.1241981983184814,-0.06,0.11,0.0,0.12
5.138405084609985,0.19,0.42,-1.19,1.27
5.144021987915039,-0.21,0.08,-0.82,0.85
5.154616117477417,-0.51,0.11,0.32,0.61
5.169445037841797,0.22,-0.18,-0.17,0.33
5.173949956893921,0.68,-0.11,-0.33,0.76
5.188244104385376,0.48,-0.04,-0.71,0.85
5.193717002868652,-0.09,-0.05,-0.37,0.38
5.204540014266968,-0.46,-0.25,-0.03,0.52
5.219487905502319,-0.6,-0.18,0.3,0.69
5.224046945571899,-0.42,0.03,0.13,0.44
5.238254070281982,-0.1,0.31,-0.61,0.69
5.243836164474487,0.09,0.35,-0.42,0.55
5.2546679973602295,0.23,0.1,-0.39,0.46
5.2705299854278564,0.17,0.01,-0.46,0.49
5.273330926895142,0.1,-0.19,-0.11,0.24
5.288279056549072,0.26,0.25,-0.37,0.51
5.293226957321167,-0.1,0.48,0.17,0.51
5.30458402633667,-0.25,-0.32,0.93,1.01
5.319588899612427,-0.5,-0.02,0.14,0.51
5.323240041732788,-0.42,0.51,-0.32,0.73
5.3383049964904785,-0.09,0.25,-0.12,0.29
5.343001127243042,-0.01,-0.12,0.39,0.4
5.354852914810181,-0.41,-0.32,1.02,1.14
5.36986517906189,-0.72,-0.34,0.69,1.05
5.373136043548584,-0.7,0.1,0.63,0.94
5.387560129165649,-0.5,0.41,-0.03,0.64
5.392573118209839,-0.2,-0.01,-0.63,0.66
5.404237985610962,-0.32,-0.24,-0.66,0.77
5.419579029083252,-0.5,-0.02,-0.41,0.64
5.422571897506714,-0.14,-0.4,-0.36,0.55
5.437896013259888,-0.03,-0.33,0.24,0.4
5.442780017852783,0.33,-0.87,0.54,1.07
5.453964948654175,-0.53,0.1,-0.21,0.57
5.468976020812988,-0.51,0.34,-1.05,1.21
5.472231149673462,0.41,-0.35,-0.69,0.87
5.4875428676605225,0.58,-0.09,0.24,0.63
5.492214918136597,-0.7,-0.21,0.5,0.88
5.504080057144165,-1.2,-0.28,-0.06,1.23
5.519245862960815,-0.15,-0.29,0.34,0.47
5.522008180618286,0.05,-0.34,0.35,0.49
5.537613153457642,0.16,-0.05,-0.19,0.25
5.542025089263916,0.01,0.29,-0.59,0.65
5.554383039474487,-0.14,0.11,-0.51,0.54
5.5693418979644775,-0.28,-0.13,0.49,0.57
5.572015047073364,0.07,-0.18,0.27,0.33
5.588083028793335,-0.12,0.12,-0.34,0.38
5.591957092285156,0.13,0.37,0.45,0.59
5.603882074356079,0.2,0.25,-0.41,0.52
5.618829011917114,0.3,0.32,-0.6,0.74
5.621588945388794,0.41,0.12,-0.15,0.45
5.6374430656433105,0.15,-0.13,0.12,0.23
5.641496896743774,-0.2,-0.1,-0.38,0.44
5.654042959213257,-0.19,-0.22,-0.34,0.44
5.669028997421265,-0.2,-0.06,-0.46,0.5
5.6712939739227295,-0.15,0.02,-0.01,0.15
5.687812089920044,-0.05,-0.03,0.06,0.08
5.691174030303955,-0.17,0.06,0.46,0.49
5.703984022140503,-0.27,0.42,0.72,0.87
5.719364881515503,-0.23,0.55,0.29,0.66
5.721374988555908,-0.12,0.23,-0.99,1.02
5.737346887588501,0.42,-0.53,-1.29,1.45
5.741016149520874,0.43,-0.46,-0.18,0.65
5.754455089569092,-0.35,0.19,0.54,0.67
5.7697389125823975,-0.32,0.51,0.62,0.86
5.7716920375823975,-0.2,0.01,0.61,0.64
5.787688970565796,-0.51,0.12,0.48,0.71
5.790536165237427,-0.3,0.11,0.26,0.41
5.804203033447266,-0.13,0.36,-0.17,0.41
5.819128036499023,-0.2,0.17,-1.08,1.11
5.821027040481567,-0.22,-0.28,-0.95,1.01
5.837278127670288,-0.54,-0.37,0.15,0.67
5.840472936630249,-0.55,-0.2,0.48,0.75
5.854207992553711,-0.26,-0.26,0.75,0.83
5.8694069385528564,0.04,0.1,0.83,0.83
5.871154069900513,-0.08,0.51,0.82,0.96
5.887737989425659,0.06,0.77,0.04,0.77
5.890075922012329,0.15,0.15,-1.47,1.48
5.904719114303589,0.25,-0.8,-1.51,1.72
5.91974401473999,0.24,-0.86,-0.41,0.98
5.9216859340667725,0.09,-0.54,0.59,0.8
5.929796934127808,0.12,-0.2,0.64,0.68
5.94067120552063,0.63,-0.01,-0.48,0.79
5.950361013412476,1.21,-0.11,-0.76,1.43
5.966578006744385,1.41,0.11,0.82,1.63
5.969548940658569,-0.28,0.27,-0.08,0.39
5.988530874252319,-1.95,0.54,-0.72,2.14
5.989715099334717,-1.74,0.24,0.33,1.78
6.004112005233765,-1.15,0.16,1.07,1.57
6.015850067138672,-0.31,-0.09,0.9,0.95
6.0192320346832275,-0.14,-0.16,0.45,0.49
6.037997007369995,-0.26,-0.12,-0.15,0.32
6.039191007614136,-0.56,0.05,-0.07,0.56
6.0538880825042725,-0.33,0.24,0.35,0.53
6.065706014633179,0.11,0.51,-0.01,0.52
6.069982051849365,0.59,0.13,0.21,0.63
6.079081058502197,0.73,0.13,-0.36,0.82
6.089335203170776,0.76,0.37,-0.65,1.06
6.098981142044067,0.47,0.64,0.87,1.17
6.110925912857056,-0.34,0.41,0.63,0.82
6.118805170059204,-0.26,-0.04,0.28,0.38
6.129017114639282,-0.14,-0.86,-0.76,1.15
6.139090061187744,-0.29,-0.78,0.21,0.85
6.14871621131897,0.48,-0.45,-1.18,1.35
6.160470008850098,0.33,0.15,-1.03,1.09
6.168666124343872,-0.08,0.83,0.24,0.86
6.178945064544678,0.5,-0.05,-0.24,0.55
6.188852071762085,-0.11,0.07,2.85,2.85
6.198884010314941,0.45,-0.98,-0.53,1.2
6.210638999938965,-0.41,-0.56,-2.09,2.2
6.218875169754028,-0.22,-1.15,-2.16,2.45
6.22836709022522,-0.32,-0.92,-1.28,1.6
6.238662958145142,-0.48,0.13,0.8,0.94
6.24851393699646,0.55,-0.3,0.63,0.88
6.26183295249939,1.02,-0.17,1.95,2.2
6.268136024475098,0.39,-0.47,3.4,3.45
6.278309106826782,-0.44,0.1,1.66,1.72
6.288316011428833,-1.85,0.25,-2.32,2.97
6.298121213912964,0.56,-0.15,-3.09,3.14
6.310703992843628,-0.05,0.64,-5.26,5.29
6.317864179611206,0.65,0.36,-1.88,2.02
6.32832407951355,0.75,-0.55,-0.95,1.32
6.33833909034729,0.32,-0.96,-1.26,1.61
6.348016977310181,0.33,-0.69,-0.19,0.78
6.361882925033569,0.38,-0.08,0.35,0.52
6.367501974105835,-0.12,0.63,0.0,0.64
6.377410173416138,-0.26,1.02,-0.58,1.2
6.387842893600464,-0.07,0.79,0.55,0.96
6.398039102554321,0.16,0.33,0.62,0.72
6.412178993225098,0.54,-0.07,-0.59,0.8
6.417553186416626,0.66,-0.42,-0.38,0.86
6.427426099777222,1.28,-1.17,-2.05,2.68
6.438005208969116,1.22,-0.98,-2.07,2.59
6.447278022766113,0.99,-0.7,-1.59,1.99
6.46117901802063,0.89,-0.42,-0.67,1.19
6.466876029968262,0.03,0.01,0.36,0.36
6.476927042007446,-0.82,1.35,0.26,1.6
6.487364053726196,0.44,2.35,0.27,2.4
6.497193098068237,1.15,1.84,-0.6,2.25
6.5112950801849365,0.26,0.58,-1.13,1.29
6.516696214675903,0.5,-1.4,0.41,1.54
6.527189016342163,-0.02,-1.16,-0.11,1.16
6.537605047225952,-1.15,0.17,0.28,1.19
6.547177076339722,-1.84,0.33,1.71,2.53
6.56181001663208,-2.64,-0.42,1.76,3.2
6.5663158893585205,-3.01,-0.87,1.62,3.52
6.57676100730896,-1.95,-0.24,1.11,2.25
6.587148904800415,-0.6,0.42,0.05,0.73
6.596669912338257,-0.51,0.53,-0.54,0.91
6.610682010650635,-0.56,0.51,0.53,0.92
6.616141080856323,-0.76,0.33,0.47,0.95
6.626183032989502,-0.31,-0.17,-0.21,0.41
6.637188196182251,-0.26,-0.24,-0.16,0.38
6.646352052688599,0.04,-0.31,0.01,0.31
6.660627126693726,-0.44,-0.35,0.49,0.74
6.6658570766448975,-0.54,-0.08,0.23,0.59
6.67621111869812,-0.24,0.09,0.25,0.35
6.686347007751465,0.01,0.01,0.26,0.26
6.696179151535034,-0.03,-0.13,0.48,0.49
6.710728883743286,-0.3,-0.28,0.14,0.43
6.715569019317627,-0.67,0.21,-0.55,0.89
6.726255178451538,-0.12,-0.17,-0.13,0.24
6.7360100746154785,0.08,-0.56,0.91,1.07
6.746122121810913,-0.05,-0.39,0.71,0.81
6.760901212692261,0.01,-0.09,0.42,0.42
6.76522421836853,0.19,-0.1,0.36,0.41
6.775787115097046,-0.46,0.11,-0.59,0.75
6.78600287437439,-0.63,0.25,-0.79,1.04
6.795446157455444,-0.26,-0.03,-0.16,0.3
6.809652090072632,-0.46,-0.24,0.95,1.08
6.815109014511108,-0.54,-0.59,1.39,1.6
6.825211048126221,-0.81,-0.55,0.83,1.28
6.835785150527954,-0.85,-0.35,0.45,1.02
6.845095872879028,-0.85,0.29,-0.72,1.15
6.8604981899261475,-0.48,0.2,-0.97,1.1
6.8648622035980225,-0.11,-0.46,-0.41,0.62
6.87545108795166,-0.4,-0.26,-0.1,0.48
6.885203123092651,-0.67,0.34,0.13,0.76
6.895344972610474,-0.39,0.43,0.57,0.81
6.910288095474243,-0.2,0.37,0.36,0.55
6.914500951766968,-0.17,-0.35,1.2,1.26
6.924797058105469,-0.05,-0.31,0.55,0.63
6.935341119766235,0.45,0.19,0.03,0.48
6.94514799118042,-0.09,0.63,-1.9,2.0
6.95967698097229,0.28,0.41,-1.93,1.99
6.964523077011108,0.77,0.02,-0.21,0.79
6.974525213241577,0.42,0.49,-0.06,0.64
6.984573125839233,0.36,0.43,-0.34,0.65
6.994678020477295,0.57,0.07,-0.15,0.59
7.009429216384888,0.64,-0.11,-0.38,0.75
7.014014005661011,0.73,-0.25,-0.64,1.0
7.024169206619263,0.57,-0.18,-0.61,0.85
7.034280061721802,0.56,-0.21,-0.27,0.65
7.0444560050964355,0.36,-0.13,0.24,0.45
7.060070037841797,0.24,0.01,0.03,0.24
7.063769102096558,0.16,0.14,0.28,0.35
7.074270009994507,-0.01,0.37,-0.57,0.67
7.083824872970581,0.24,-0.39,-0.14,0.47
7.094225168228149,0.38,-0.59,-0.06,0.7
7.108970880508423,0.11,-0.47,-0.27,0.55
7.113393068313599,0.11,-0.06,-0.21,0.24
7.123633146286011,0.03,0.12,0.65,0.66
7.133576154708862,-0.18,0.34,0.57,0.68
7.143833875656128,-0.22,0.33,0.13,0.41
7.157968997955322,-0.23,-0.2,0.13,0.33
7.163490056991577,-0.38,-0.64,0.43,0.85
7.173377990722656,-0.13,-0.16,-0.76,0.78
7.18373703956604,0.34,-0.24,-0.54,0.68
7.193727016448975,-0.01,-0.01,-0.56,0.56
7.209561109542847,-0.2,0.4,-0.09,0.45
7.21292519569397,-0.16,0.59,0.29,0.67
7.223221063613892,-0.1,0.48,0.4,0.63
7.233155965805054,-0.24,0.28,0.32,0.48
7.2433600425720215,-0.35,0.21,-0.09,0.41
7.259293079376221,-0.18,-0.32,-0.01,0.36
7.2628090381622314,-0.03,-0.67,0.07,0.67
7.273483037948608,-0.02,-0.27,-0.05,0.27
7.283064126968384,0.19,-0.17,0.66,0.7
7.293421030044556,0.01,-0.34,0.57,0.66
7.308120965957642,-0.04,-0.2,0.28,0.34
7.313340902328491,0.04,0.05,0.2,0.21
7.322818040847778,-0.09,0.32,-0.05,0.33
7.333036184310913,-0.28,0.27,0.17,0.42
7.342819929122925,-0.33,-0.14,-0.47,0.59
7.365856885910034,-0.42,-0.37,0.41,0.69
7.368260145187378,-0.22,-0.25,-0.2,0.38
7.372838020324707,-0.06,0.25,0.11,0.27
7.390933036804199,-0.41,0.09,0.31,0.52
7.392834901809692,-0.15,0.41,-0.31,0.53
7.408470869064331,-0.01,0.31,-0.28,0.41
7.412316083908081,-0.04,0.18,-0.15,0.23
7.424460172653198,-0.01,0.4,-0.53,0.66
7.4325549602508545,0.01,0.35,-0.64,0.72
7.442707061767578,-0.05,0.23,-0.44,0.49
7.458580017089844,0.01,0.04,-0.2,0.2
7.462485074996948,-0.14,-0.09,0.03,0.16
7.473383188247681,0.04,-0.41,0.25,0.48
7.4822540283203125,0.1,-0.32,-0.28,0.43
7.49245810508728,0.28,-0.52,-0.3,0.66
7.509016036987305,0.29,-0.37,-0.4,0.61
7.5123021602630615,0.32,0.31,-0.59,0.73
7.524058103561401,0.18,-0.03,-0.12,0.21
7.532933950424194,-0.42,-0.3,0.22,0.56
7.542053937911987,-0.33,-0.47,0.07,0.57
7.5616090297698975,-0.29,-0.3,0.17,0.45
7.563456058502197,-0.6,0.09,-0.28,0.66
7.574292898178101,-0.05,0.23,0.05,0.24
7.582012891769409,-0.01,0.27,0.12,0.29
7.591670036315918,0.04,0.21,-0.23,0.31
7.618263006210327,0.34,0.03,-0.28,0.44
7.621908903121948,0.33,-0.49,-0.3,0.66
7.640531063079834,-0.11,-0.34,-0.35,0.5
7.643570184707642,-0.18,-0.53,-0.16,0.58
7.6568849086761475,-0.2,-0.33,-0.11,0.4
7.6795830726623535,-0.24,-0.37,-0.06,0.44
7.682581186294556,-0.31,-0.04,0.19,0.36
7.689342021942139,-0.08,0.56,0.35,0.66
7.691664934158325,0.26,0.82,0.09,0.86
7.70629620552063,0.26,0.5,-0.18,0.59
7.728791952133179,0.14,-0.12,-0.34,0.38
7.730892896652222,-0.16,-0.66,-0.3,0.74
7.739490032196045,-0.25,-0.86,0.18,0.91
7.741631031036377,-0.46,-0.56,0.07,0.72
7.756177186965942,-0.29,-0.19,-0.24,0.42
7.778972864151001,-0.05,0.29,0.4,0.49
7.781809091567993,-0.06,0.62,0.79,1.0
7.789761066436768,0.14,0.87,0.47,0.99
7.792073965072632,0.22,0.88,-0.69,1.13
7.80698299407959,0.18,-0.02,-0.6,0.62
7.829231023788452,-0.22,-0.52,-0.45,0.72
7.831412076950073,-0.3,-0.96,-0.31,1.05
7.839498043060303,-0.35,-1.07,0.67,1.31
7.8415679931640625,-0.3,-0.44,1.26,1.36
7.856703042984009,-0.07,0.39,0.39,0.55
7.885133981704712,0.09,0.68,-0.52,0.86
7.889276027679443,0.08,0.63,-0.3,0.7
7.905675172805786,0.08,0.39,-0.38,0.55
7.907412052154541,-0.02,-0.22,-0.17,0.27
7.924743890762329,-0.12,-0.88,0.17,0.9
7.958752870559692,0.02,-0.83,0.76,1.12
7.962641000747681,-0.02,-0.1,0.16,0.18
8.021167993545532,0.18,0.24,-0.04,0.3
8.038531064987183,0.22,0.23,0.09,0.33
8.07938003540039,-0.09,0.27,-0.35,0.45
8.090172052383423,-0.24,0.08,-0.2,0.32
8.092204093933105,-0.32,-0.25,0.07,0.41
8.19990086555481,-0.49,-0.24,0.17,0.57
8.220598936080933,-0.3,-0.28,0.29,0.5
8.226798057556152,-0.33,-0.02,0.08,0.34
8.255786180496216,-0.28,0.06,-0.18,0.33
8.257974863052368,-0.31,0.1,0.31,0.44
8.273370027542114,-0.49,-0.15,0.02,0.51
8.275124073028564,-0.59,-0.19,-0.05,0.62
8.289868116378784,-0.12,-0.28,-0.15,0.33
8.31139588356018,0.06,0.12,-0.46,0.47
8.313493013381958,0.04,-0.17,-0.02,0.17
8.323286056518555,-0.34,-0.07,-0.23,0.41
8.325188875198364,-0.28,-0.21,-0.55,0.65
8.339794874191284,0.02,-0.5,-0.56,0.75
8.361144065856934,-0.03,-0.56,-0.14,0.57
8.363237142562866,-0.41,-0.1,0.2,0.46
8.373032093048096,-0.52,0.14,-0.01,0.53
8.374881029129028,-0.24,0.68,0.18,0.74
8.389556169509888,-0.14,0.82,-0.4,0.92
8.410338163375854,0.12,0.62,-0.38,0.73
8.412389039993286,0.51,0.45,-0.62,0.92
8.422656059265137,0.6,-0.21,-0.65,0.9
8.424448013305664,0.56,-0.17,0.48,0.75
8.439790964126587,0.51,-0.09,0.32,0.6
8.460745096206665,0.47,0.02,-0.09,0.47
8.463142156600952,0.39,0.06,-0.38,0.54
8.473160028457642,0.02,0.11,-0.51,0.52
8.47505497932434,-0.69,0.02,-0.62,0.92
8.490035057067871,-0.42,-0.11,-0.78,0.89
8.510432958602905,-0.57,0.22,-0.33,0.69
8.512224912643433,-0.4,0.09,0.11,0.42
8.523252010345459,-0.26,-0.39,0.19,0.5
8.52534008026123,-0.38,-0.64,0.05,0.74
8.539870977401733,-0.12,-0.35,0.33,0.49
8.560142993927002,-0.36,0.17,0.16,0.42
8.562130212783813,-0.26,0.29,0.03,0.39
8.57335114479065,-0.25,0.42,0.05,0.49
8.575064897537231,-0.09,0.11,0.06,0.15
8.590413093566895,0.27,-0.2,0.26,0.42
8.611552000045776,0.06,-0.17,-0.02,0.18
8.613558053970337,0.02,-0.36,-0.38,0.52
8.623180150985718,-0.07,-0.25,-0.66,0.7
8.625130891799927,0.04,-0.01,-0.17,0.17
8.640043020248413,-0.62,0.11,-0.02,0.63
8.662577867507935,0.03,0.06,-0.11,0.12
8.6652090549469,0.11,0.32,0.13,0.36
8.672980070114136,0.16,0.49,0.19,0.54
8.674659013748169,0.11,0.5,-0.37,0.63
8.691511869430542,-0.41,0.13,-0.63,0.76
8.713173151016235,-0.4,-0.44,0.01,0.59
8.715311050415039,-0.53,-0.64,0.7,1.08
8.724359035491943,-0.29,-0.19,0.63,0.71
8.728520154953003,0.1,0.2,0.66,0.69
8.739742040634155,0.33,0.38,0.23,0.55
8.759612083435059,0.42,0.55,-0.29,0.75
8.761522054672241,0.29,0.18,-0.23,0.41
8.773424863815308,0.16,-0.17,-0.14,0.27
8.775211095809937,-0.14,-0.52,-0.05,0.54
8.790008068084717,-0.25,-0.63,0.31,0.74
8.81162714958191,-0.16,-0.48,0.16,0.53
8.813585996627808,-0.32,-0.21,-0.14,0.4
8.82333493232727,-0.1,0.05,-0.12,0.16
8.825231075286865,-0.14,0.31,-0.13,0.36
8.839875936508179,0.06,0.46,0.11,0.47
8.860996961593628,0.02,0.34,-0.25,0.42
8.863077878952026,-0.22,-0.05,-0.65,0.68
8.87334418296814,-0.17,-0.2,-0.58,0.63
8.875128984451294,0.1,-0.11,0.04,0.15
8.889870882034302,-0.11,-0.13,0.27,0.31
8.916081190109253,-0.16,-0.26,0.17,0.34
8.919531106948853,-0.09,-0.02,-0.21,0.22
8.92294192314148,-0.37,0.01,-0.35,0.5
8.940365076065063,-0.51,-0.09,-0.24,0.57
8.94225287437439,-0.59,-0.07,-0.09,0.6
8.96279001235962,-0.42,-0.19,-0.23,0.51
8.964787006378174,0.08,-0.18,0.2,0.28
8.973574876785278,0.0,-0.07,-0.08,0.1
8.97540020942688,0.05,-0.05,-0.1,0.12
8.989877939224243,0.24,-0.05,0.08,0.25
9.010367155075073,-0.03,-0.05,-0.01,0.05
9.012137174606323,-0.25,-0.01,-0.09,0.26
9.024834871292114,0.09,-0.08,0.26,0.28
9.027650117874146,-0.2,0.0,-0.08,0.21
9.04054307937622,-0.19,0.14,-0.55,0.59
9.061241865158081,-0.24,0.13,-0.06,0.27
9.063448190689087,-0.21,-0.24,-0.27,0.41
9.073180913925171,-0.01,-0.3,-0.2,0.36
9.074916124343872,-0.1,-0.11,0.21,0.25
9.089552164077759,-0.03,-0.09,0.02,0.09
9.111002206802368,0.34,0.18,0.27,0.47
9.112971067428589,0.12,0.29,0.26,0.4
9.123544931411743,-0.03,0.18,0.04,0.18
9.1252601146698,0.06,-0.26,-0.15,0.3
9.139909982681274,-0.42,-0.48,-0.37,0.73
9.160474061965942,-0.42,-0.35,-0.38,0.66
9.162484884262085,-0.35,-0.26,-0.38,0.57
9.17342209815979,-0.2,-0.08,0.21,0.3
9.175226926803589,-0.17,0.17,0.11,0.26
9.190465211868286,0.2,0.28,0.04,0.34
9.211698055267334,0.32,0.65,0.35,0.8
9.213563203811646,1.7,1.63,0.5,2.4
9.223500967025757,1.33,1.7,-0.83,2.31
9.225418090820312,-2.71,-0.29,0.75,2.82
9.240423917770386,0.97,-1.55,-1.89,2.62
9.262248992919922,-0.44,-0.65,0.59,0.98
9.264276027679443,-0.8,-1.23,0.09,1.47
9.273158073425293,-0.32,-0.7,-0.59,0.96
9.274863958358765,-0.47,-0.03,-0.4,0.61
9.290142059326172,-1.0,-0.03,-0.79,1.27
9.311065912246704,-1.04,-0.28,-1.92,2.2
9.312936067581177,-0.64,-0.39,-1.96,2.09
9.323060989379883,0.68,-0.4,-1.18,1.41
9.324882984161377,1.04,0.28,0.77,1.32
9.340247869491577,1.44,0.25,1.35,1.98
9.361150026321411,0.52,-0.38,0.83,1.05
9.363285064697266,-0.32,-1.54,0.92,1.82
9.373872995376587,-0.06,-0.44,-0.25,0.5
9.375617980957031,-0.44,1.02,0.07,1.11
9.38985300064087,-1.2,1.41,0.17,1.85
9.41037392616272,-0.75,1.2,-0.46,1.48
9.412322044372559,-0.35,0.19,-1.53,1.58
9.423935174942017,0.1,-0.72,-1.46,1.63
9.425688982009888,0.64,-0.59,0.88,1.23
9.440623998641968,0.86,-0.14,1.46,1.7
9.461084127426147,0.82,-0.1,0.05,0.82
9.463256120681763,0.12,0.0,0.34,0.36
9.473636865615845,-0.27,0.07,0.1,0.29
9.475486993789673,-0.23,-0.09,-0.62,0.66
9.49003005027771,-0.18,-0.15,-0.3,0.38
9.510739088058472,-0.24,0.33,-1.0,1.08
9.512893915176392,-0.07,-0.74,-1.54,1.71
9.523802995681763,0.19,-0.19,-0.29,0.39
9.52551817893982,-0.33,0.17,0.84,0.91
9.540093183517456,-0.17,-0.02,2.05,2.05
9.561298131942749,0.17,0.26,0.5,0.58
9.563225030899048,0.28,0.06,-0.27,0.39
9.573329210281372,0.24,-0.34,-0.33,0.53
9.575134038925171,0.02,-0.29,-0.16,0.33
9.590369939804077,0.22,-0.31,0.06,0.38
9.61059308052063,0.26,0.06,-0.2,0.33
9.612380981445312,0.26,0.08,0.0,0.27
9.623817205429077,-0.11,0.02,0.08,0.13
9.625567197799683,-0.23,-0.05,-0.1,0.25
9.640019178390503,0.57,0.07,-0.22,0.61
9.660802125930786,0.49,0.61,-0.46,0.9
9.662936925888062,0.18,0.44,-0.01,0.47
9.67374300956726,0.09,-0.01,-0.18,0.2
9.67543911933899,0.05,-0.36,-0.16,0.39
9.689526081085205,-0.12,-0.39,-1.5,1.55
9.709837198257446,-0.48,-0.36,-0.13,0.61
9.711781024932861,-0.91,-0.07,1.26,1.55
9.724066019058228,-0.57,-0.25,0.23,0.66
9.725702047348022,0.09,0.08,0.03,0.12
9.73996090888977,0.54,0.18,-0.35,0.66
9.760148048400879,0.26,0.19,-0.68,0.75
9.762054204940796,0.25,0.17,-0.44,0.53
9.77337908744812,0.02,-0.01,0.0,0.02
9.77554702758789,-0.35,-0.21,0.46,0.61
9.790825128555298,-0.51,-0.03,0.14,0.52
9.81105899810791,-0.22,-0.28,-0.01,0.35
9.812978982925415,-0.34,0.23,-0.17,0.44
9.823389053344727,-0.15,-0.26,-0.51,0.59
9.825023889541626,-0.2,0.11,-0.51,0.55
9.840810060501099,0.02,0.7,-0.62,0.93
9.861220121383667,0.08,0.97,-0.4,1.05
9.863209009170532,0.04,-0.06,-0.14,0.15
9.873732089996338,-0.51,-0.73,0.64,1.09
9.875494003295898,-0.89,-0.52,0.44,1.12
9.892171144485474,-0.28,-0.82,0.38,0.94
9.912764072418213,0.24,-0.73,-0.04,0.76
9.9147469997406,0.2,-0.42,-0.35,0.58
9.923352003097534,0.94,-1.05,0.32,1.44
9.92520809173584,-0.64,0.54,0.09,0.84
9.941373109817505,-0.16,0.76,-0.38,0.86
9.961714029312134,0.4,-0.15,0.63,0.76
9.963629007339478,-0.41,0.62,-0.2,0.76
9.973006963729858,-0.1,-0.5,0.31,0.59
9.974762201309204,-0.85,-0.39,-0.3,0.98
9.989928007125854,0.16,-0.58,-0.06,0.6
10.010512113571167,0.07,-0.23,-0.39,0.45
10.012365102767944,0.31,-0.27,-0.5,0.64
10.023193120956421,0.11,-0.43,-0.49,0.66
10.024781942367554,-0.23,0.47,0.06,0.52
10.040798902511597,-0.24,-0.01,0.38,0.44
10.061668157577515,-0.21,-0.22,-0.67,0.73
10.06356692314148,0.12,-0.24,-0.15,0.3
10.073220014572144,0.14,0.04,0.06,0.15
10.075009107589722,0.19,0.37,-0.94,1.02
10.090684175491333,0.51,0.26,-1.15,1.28
10.111032009124756,0.12,0.24,-0.42,0.49
10.112870931625366,-0.16,0.36,-0.19,0.43
10.123333215713501,-0.45,0.33,-0.05,0.56
10.124961137771606,-0.45,0.2,0.37,0.61
10.141052007675171,0.01,-0.19,-0.47,0.5
10.160952091217041,0.21,-0.07,-0.79,0.82
10.162767171859741,0.04,0.03,-0.55,0.55
10.173250913619995,0.08,0.17,-0.23,0.29
10.175096988677979,0.38,-0.04,-0.15,0.41
10.191565036773682,0.2,0.25,-0.03,0.32
10.212131023406982,-0.09,0.55,0.46,0.72
10.214142084121704,0.19,0.19,-0.07,0.27
10.22366213798523,0.2,0.11,-0.66,0.69
10.225346088409424,0.39,0.08,-0.72,0.82
10.241029024124146,0.56,0.15,-0.65,0.87
10.261934995651245,0.62,0.29,-0.9,1.13
10.263785123825073,0.58,-0.18,-1.29,1.42
10.273732900619507,-0.14,-0.54,-1.17,1.29
10.275408029556274,-0.46,-0.81,-0.89,1.28
10.292038202285767,-0.61,-0.57,-0.1,0.84
10.313183069229126,-0.81,-0.37,0.85,1.23
10.315021991729736,-0.98,0.15,0.67,1.19
10.32399296760559,-0.62,0.44,-0.23,0.79
10.325895071029663,-0.28,0.21,-0.11,0.36
10.34155011177063,-0.22,-0.31,0.37,0.53
10.344462156295776,-0.23,-0.7,0.63,0.96
10.364240884780884,0.48,-0.41,-0.86,1.06
10.366160154342651,0.74,0.37,-1.03,1.32
10.373500108718872,0.36,0.02,-0.97,1.03
10.375318050384521,-0.9,-0.68,-1.73,2.06
10.396929025650024,-0.83,-0.44,-1.71,1.95
10.398710012435913,-0.39,0.31,-1.19,1.29
10.406912088394165,0.2,0.02,0.3,0.36
10.40843415260315,0.49,0.41,0.3,0.7
10.423965215682983,0.77,1.01,0.6,1.4
10.445390939712524,0.73,0.25,0.23,0.8
10.447247982025146,0.41,-0.2,0.0,0.45
10.457159042358398,-0.21,-0.49,0.31,0.61
10.458797216415405,-0.38,-0.8,0.64,1.09
10.473749876022339,-0.24,-0.87,0.25,0.93
10.494472980499268,-0.71,-0.42,0.42,0.92
10.4963960647583,-0.63,-0.18,0.72,0.97
10.507260084152222,-0.99,-0.41,-0.41,1.14
10.509079217910767,-1.29,-0.94,0.5,1.67
10.52358603477478,-1.49,-0.85,0.36,1.75
10.544761896133423,-1.35,-0.4,-0.49,1.49
10.546635866165161,-0.33,-0.51,-0.67,0.9
10.556915044784546,0.27,-0.56,-0.78,0.99
10.558691024780273,0.78,-0.74,-0.47,1.17
10.573629140853882,1.15,-0.66,0.17,1.33
10.594504117965698,0.56,-0.31,-0.49,0.8
10.596422910690308,0.09,-0.21,0.52,0.56
10.606756925582886,-0.26,-0.13,0.66,0.72
10.608414888381958,-0.62,-0.19,-0.83,1.05
10.624569177627563,-0.52,-0.06,-1.09,1.2
10.646322965621948,0.2,0.09,-0.84,0.86
10.648186922073364,0.33,-0.05,-1.48,1.51
10.65713620185852,0.21,0.0,-0.51,0.55
10.658773183822632,0.09,0.1,-0.28,0.31
10.674818992614746,0.38,0.01,-1.51,1.55
10.695875883102417,0.08,0.14,-1.58,1.58
10.697800874710083,-0.19,0.91,0.89,1.28
10.70746111869812,-0.19,1.36,2.46,2.81
10.708987951278687,-0.3,1.09,2.69,2.91
10.724348068237305,-0.54,0.76,1.59,1.84
10.744990110397339,-0.88,0.73,0.5,1.24
10.747123956680298,-1.3,0.69,0.04,1.47
10.75717306137085,-1.35,0.26,-0.04,1.37
10.75908899307251,-1.13,-0.41,-0.42,1.27
10.774049043655396,-0.77,-0.74,-0.55,1.2
10.79538607597351,-0.35,-0.57,-0.46,0.81
10.797260046005249,-0.27,-0.08,-0.67,0.72
10.807084083557129,-0.06,0.25,-0.93,0.96
10.808876991271973,0.27,0.51,-0.71,0.91
10.823827981948853,0.4,0.52,1.12,1.29
10.844688177108765,-0.27,0.65,0.96,1.19
10.846528053283691,-0.49,0.37,0.6,0.85
10.857276201248169,0.02,-0.49,0.87,0.99
10.859106063842773,-0.02,-1.05,0.42,1.13
10.874989032745361,-0.43,-0.2,-0.4,0.62
10.896362066268921,-0.38,0.25,-0.43,0.62
10.898076057434082,0.01,-0.04,0.03,0.05
10.906390905380249,0.37,0.03,-0.64,0.73
10.908001184463501,0.63,0.21,-0.24,0.7
10.924741983413696,0.67,-0.05,0.19,0.69
10.946000099182129,0.19,0.0,0.07,0.2
10.947948217391968,-0.54,-0.05,0.14,0.56
10.957035064697266,-0.87,-0.18,-0.02,0.88
10.958789110183716,-0.43,-0.3,-0.1,0.53
10.974814176559448,0.13,-0.35,-0.09,0.38
10.995815992355347,0.34,-0.21,-0.23,0.46
10.997720003128052,0.3,-0.03,-0.48,0.56
11.006978034973145,0.48,-0.08,-0.58,0.75
11.008563041687012,0.42,0.06,-0.5,0.65
11.02466607093811,0.18,0.15,-0.36,0.42
11.045714139938354,-0.09,-0.08,-0.29,0.31
11.047693014144897,-0.49,-0.12,-0.47,0.68
11.056926965713501,-0.21,-0.29,-0.59,0.69
11.058572053909302,0.12,0.08,-0.19,0.23
11.07464599609375,0.35,0.51,-0.01,0.61
11.096007108688354,0.13,0.6,0.16,0.63
11.097876071929932,-0.25,0.25,-0.05,0.35
11.107269048690796,-0.52,-0.07,-0.12,0.53
11.108926057815552,-0.54,-0.15,-0.02,0.56
11.124935865402222,-0.37,-0.12,-0.05,0.39
11.146530866622925,-0.26,0.02,-0.15,0.3
11.14874815940857,-0.23,0.09,-0.13,0.27
11.156776189804077,-0.31,0.07,-0.08,0.32
11.158330202102661,-0.39,0.0,-0.07,0.39
11.174515962600708,-0.27,-0.16,-0.14,0.34
11.19566798210144,-0.03,-0.13,-0.17,0.21
11.197558164596558,0.05,0.06,-0.2,0.21
11.206979990005493,0.38,-0.1,-0.49,0.62
11.20877194404602,1.25,-0.57,-1.44,1.99
11.224043130874634,0.44,0.24,-0.41,0.64
11.24491286277771,-0.22,0.32,-0.08,0.39
11.246823072433472,-0.54,-0.01,-0.12,0.55
11.257146120071411,-0.74,0.11,0.79,1.08
11.25888204574585,-0.72,0.03,0.43,0.83
11.274865865707397,-0.38,-0.27,0.51,0.69
11.296170949935913,-0.25,-0.24,0.23,0.41
11.298086881637573,-0.01,0.05,-0.86,0.86
11.307026147842407,0.56,0.2,-0.67,0.89
11.308597087860107,0.24,0.19,-0.39,0.49
11.3248610496521,0.07,-0.23,-0.11,0.26
11.346023082733154,-0.08,-0.23,0.11,0.26
11.347589015960693,-0.55,0.08,0.06,0.55
11.356693983078003,-0.39,0.08,-0.22,0.45
11.358279943466187,-0.25,0.05,0.05,0.25
11.374540090560913,-0.55,0.06,0.08,0.55
11.395385026931763,-0.48,-0.22,-0.17,0.55
11.397071123123169,0.09,-0.99,0.71,1.22
11.407586097717285,0.15,0.09,-0.21,0.27
11.409301996231079,0.31,0.65,-0.79,1.06
11.42399287223816,0.18,0.35,-0.54,0.66
11.444765090942383,0.39,-0.38,-0.21,0.58
11.446670055389404,0.05,-0.28,0.04,0.28
11.456795930862427,-0.26,0.02,-0.16,0.3
11.458451986312866,-0.35,0.0,-0.22,0.41
11.474462985992432,-0.24,-0.01,-0.14,0.27
11.494615077972412,0.24,-0.11,-0.04,0.26
11.496495962142944,0.65,-0.19,0.08,0.68
11.506765127182007,0.87,-0.38,0.14,0.95
11.508409023284912,0.49,-0.23,-0.14,0.55
11.52385687828064,-0.06,0.08,-0.36,0.37
11.544470071792603,-0.36,-0.06,0.27,0.45
11.546423196792603,-0.89,-0.17,0.75,1.17
11.556775093078613,-1.14,-0.05,0.48,1.23
11.558449029922485,-0.45,-0.11,0.22,0.51
11.574138879776001,-0.04,-0.09,0.07,0.12
11.594111204147339,0.12,0.07,-0.48,0.49
11.595992088317871,0.32,0.07,-0.89,0.94
11.60680603981018,0.44,0.07,-0.82,0.93
11.608291864395142,0.52,-0.01,-0.58,0.77
11.625191926956177,0.43,0.03,-0.31,0.53
11.646326065063477,0.32,0.04,-0.09,0.33
11.648144006729126,-0.26,0.05,-0.45,0.52
11.657636880874634,-0.53,-0.02,-0.68,0.86
11.659390211105347,-0.02,-0.42,-0.2,0.46
11.674049139022827,0.18,-0.27,0.26,0.41
11.694575071334839,0.16,0.04,0.25,0.29
11.696394205093384,-0.24,0.15,-0.07,0.29
11.706878900527954,-0.85,0.25,-0.36,0.95
11.708375215530396,-0.91,0.01,-0.28,0.95
11.724976062774658,-0.38,-0.36,0.07,0.52
11.74537706375122,-0.17,-0.17,0.33,0.4
11.747216939926147,-0.04,0.08,0.25,0.26
11.757328987121582,0.26,-0.03,-0.07,0.27
11.758981943130493,0.14,-0.09,-0.31,0.35
11.774832010269165,-0.36,0.02,-0.44,0.56
11.796016931533813,-0.14,-0.31,-0.49,0.59
11.797856092453003,0.45,-0.34,-0.3,0.63
11.807481050491333,0.33,0.01,-0.19,0.38
11.809062004089355,0.1,0.07,-0.09,0.15
11.824218988418579,0.11,-0.1,0.16,0.21
11.845130205154419,-0.21,-0.13,0.05,0.25
11.847002029418945,-0.23,-0.2,0.02,0.3
11.858857870101929,-0.21,-0.34,0.06,0.4
11.860524892807007,-0.69,-0.37,-0.19,0.8
11.873666048049927,-1.04,0.1,-0.4,1.11
11.894068956375122,-0.34,0.39,-0.11,0.52
11.895961999893188,0.62,0.23,0.32,0.73
11.906907081604004,1.09,0.08,0.26,1.12
11.908515214920044,0.62,0.2,-0.43,0.78
11.92389702796936,0.24,-0.15,-0.9,0.94
11.944806098937988,-0.35,-0.3,-0.9,1.01
11.946587085723877,-0.36,-0.21,-0.53,0.67
11.957159996032715,0.22,-0.2,0.11,0.31
11.958739995956421,0.05,0.69,0.34,0.77
11.975102186203003,-0.13,0.59,0.12,0.61
11.995812177658081,0.35,-0.3,0.49,0.67
11.997656106948853,0.12,-0.39,0.54,0.67
12.007788896560669,-0.5,-0.12,-0.3,0.59
12.009371042251587,-0.64,-0.23,-0.31,0.74
12.023799180984497,-0.48,0.04,-0.18,0.51
12.04481816291809,0.04,0.18,-0.18,0.25
12.046629190444946,-0.07,-0.04,-0.13,0.15
12.057743072509766,0.85,-0.09,0.17,0.87
12.059319019317627,0.63,0.14,0.12,0.65
12.074100017547607,0.06,-0.05,-0.15,0.16
12.095128059387207,0.11,-0.09,-0.26,0.29
12.097049951553345,0.3,0.0,-0.55,0.62
12.109085083007812,-0.13,0.04,-1.18,1.18
12.110653162002563,0.02,-0.21,-1.17,1.18
12.124727964401245,0.17,-0.25,-0.62,0.68
12.145686864852905,0.19,-0.17,-0.15,0.29
12.14769721031189,0.17,0.19,0.02,0.25
12.15706992149353,0.35,0.27,0.05,0.44
12.158650159835815,-0.69,-0.34,0.06,0.77
12.175831079483032,-0.82,-0.28,-0.59,1.04
12.199367046356201,-0.83,0.21,-1.02,1.33
12.201253175735474,-0.03,0.38,0.06,0.38
12.207503080368042,0.58,-0.14,0.54,0.8
12.209074020385742,0.89,-0.41,0.58,1.13
12.224924087524414,0.68,-0.03,0.29,0.73
12.247281074523926,-0.86,-0.01,-0.76,1.14
12.24954605102539,-0.44,-0.47,-0.28,0.7
12.257688045501709,0.16,-0.43,-0.17,0.48
12.25941014289856,-0.52,-0.02,-0.29,0.59
12.27460503578186,0.17,-0.44,-0.01,0.47
12.29564905166626,0.74,-0.19,0.25,0.8
12.297763109207153,0.45,0.25,-0.31,0.6
12.308494091033936,-0.17,0.41,-1.35,1.42
12.310273885726929,0.11,-0.24,-1.27,1.29
12.325248956680298,-0.08,-0.39,-0.23,0.45
12.348864078521729,-0.57,-0.32,0.11,0.66
12.350820064544678,-0.85,0.03,-0.36,0.92
12.35839295387268,-0.21,0.29,0.31,0.47
12.36012601852417,0.43,0.0,0.89,0.98
12.374717950820923,0.61,-0.08,0.08,0.62
12.396368026733398,0.82,-0.2,0.69,1.09
12.398389101028442,-0.32,-0.63,-0.86,1.11
12.408372163772583,-0.21,0.04,-0.45,0.49
12.410070180892944,-1.3,0.25,-0.86,1.57
12.425337076187134,-2.42,0.2,-0.59,2.49
12.44606900215149,-0.03,-0.01,1.18,1.18
12.447946071624756,0.37,0.01,1.3,1.35
12.45807409286499,-0.17,0.28,0.14,0.35
12.459666967391968,2.61,-0.09,0.4,2.64
12.474709033966064,1.24,-0.09,-0.42,1.31
12.495686054229736,-0.98,-0.05,-1.94,2.17
12.497697114944458,-0.53,-0.28,-0.49,0.77
12.507879972457886,-1.2,0.11,0.24,1.22
12.50945496559143,-1.67,0.01,0.53,1.75
12.524702072143555,-1.58,0.04,0.82,1.78
12.545829057693481,-1.34,-0.37,0.38,1.44
12.54772400856018,-1.95,-0.89,-0.06,2.14
12.558099031448364,-0.92,-0.49,0.01,1.04
12.559695959091187,-0.31,0.17,-0.35,0.49
12.574970006942749,0.2,0.32,-0.09,0.38
12.59580111503601,0.11,0.05,-0.83,0.83
12.597625017166138,-0.03,0.43,-1.22,1.29
12.608286142349243,-0.02,0.4,-1.66,1.7
12.60997986793518,0.6,-0.26,-0.85,1.07
12.627398014068604,1.5,-0.55,0.11,1.6
12.630252122879028,1.47,-0.23,0.72,1.65
12.651085138320923,1.14,0.37,1.15,1.66
12.652976989746094,0.42,0.32,0.7,0.87
12.657315015792847,-0.26,-0.12,-0.05,0.29
12.675779104232788,-0.32,-0.36,-0.4,0.62
12.697037935256958,-0.1,-0.19,-0.47,0.51
12.699012041091919,0.11,0.05,-0.39,0.4
12.70793890953064,0.03,0.31,-0.07,0.31
12.709510087966919,0.08,-0.02,0.1,0.12
12.725542068481445,-0.06,-0.15,0.04,0.16
12.747443914413452,-0.2,0.0,-0.16,0.25
12.749396085739136,-0.11,-0.02,-0.28,0.3
12.757842063903809,0.06,-0.08,-0.24,0.26
12.759474992752075,0.16,-0.09,-0.12,0.21
12.775166988372803,0.1,-0.06,-0.11,0.16
12.79629111289978,0.01,-0.05,-0.04,0.06
12.79819107055664,-0.06,-0.09,-0.07,0.12
12.808147192001343,-0.08,-0.17,-0.05,0.19
12.809720993041992,-0.19,-0.18,-0.13,0.29
12.824903011322021,-0.19,-0.18,-0.13,0.29
12.845906972885132,-0.1,-0.12,0.01,0.15
12.847568035125732,0.0,-0.08,0.05,0.09
12.849300146102905,0.09,-0.19,0.08,0.22
12.857919931411743,0.0,-0.12,-0.03,0.12
12.859523057937622,0.14,-0.27,-0.09,0.31
12.880737066268921,0.13,-0.25,-0.18,0.33
12.882283926010132,0.13,-0.13,-0.18,0.25
12.891726016998291,0.11,-0.11,-0.14,0.2
12.89338207244873,-0.35,-0.34,0.17,0.51
12.908294916152954,-0.29,-0.21,0.5,0.61
12.931666135787964,0.04,-0.18,0.12,0.22
12.9324471950531,0.08,-0.09,-0.29,0.31
12.93454909324646,0.13,-0.07,-0.25,0.29
12.940924882888794,0.07,-0.21,-0.25,0.33
12.942377090454102,-0.13,-0.25,-0.26,0.38
12.966211080551147,-0.06,-0.12,-0.16,0.2
12.968354940414429,-0.04,-0.05,-0.1,0.11
12.976706981658936,-0.08,-0.01,0.02,0.08
12.978713989257812,-0.1,-0.04,0.09,0.14
12.99210500717163,-0.14,-0.07,0.06,0.16
12.99527621269226,-0.05,-0.1,-0.04,0.11
13.01829218864441,-0.09,0.0,-0.2,0.21
13.021086931228638,-0.13,0.14,-0.27,0.33
13.026082038879395,-0.24,-0.01,-0.18,0.3
13.043338060379028,-0.27,0.02,-0.03,0.27
13.067209959030151,-0.22,0.05,-0.03,0.22
13.069133996963501,-0.23,-0.01,-0.01,0.23
13.074187994003296,-0.05,-0.11,-0.02,0.12
13.090749979019165,-0.53,0.17,0.22,0.59
13.093122005462646,-0.7,0.17,0.64,0.96
13.11472487449646,-0.29,-0.04,0.62,0.68
13.116491079330444,-0.09,-0.42,0.06,0.43
13.12428593635559,-0.11,-0.48,-0.5,0.7
13.125839948654175,0.19,-0.14,-0.84,0.87
13.141277074813843,0.01,0.05,-0.91,0.91
13.163121938705444,0.48,-0.02,-0.7,0.84
13.165146112442017,0.41,-0.59,-0.68,0.98
13.174723863601685,0.09,-0.38,-0.44,0.58
13.176356077194214,0.05,-0.23,-0.24,0.33
13.191704034805298,-0.62,0.22,0.19,0.68
13.213999032974243,-0.45,0.66,1.14,1.39
13.215965986251831,-0.15,0.37,1.07,1.14
13.224958181381226,-0.68,0.01,0.28,0.73
13.226975202560425,-0.3,-0.64,0.19,0.73
13.242085218429565,0.19,-1.12,-0.47,1.22
13.263444185256958,0.69,-0.62,-1.31,1.6
13.26534104347229,1.61,-0.13,-1.67,2.32
13.27419400215149,2.1,-0.12,-2.03,2.92
13.275744199752808,0.39,-0.58,-1.38,1.54
13.291522026062012,-0.08,0.36,0.34,0.5
13.31369400024414,0.02,0.26,0.83,0.87
13.31571102142334,-0.61,-0.02,1.28,1.41
13.324194192886353,-0.59,0.06,1.26,1.39
13.325770139694214,0.01,0.3,0.24,0.38
13.340509176254272,0.56,0.25,-0.67,0.9
13.362070083618164,0.75,0.18,-1.17,1.4
13.363878011703491,0.58,0.31,-1.07,1.25
13.374008893966675,0.55,0.5,-0.34,0.81
13.375571012496948,0.43,0.48,0.07,0.64
13.392164945602417,0.27,0.07,-0.02,0.27
13.414417028427124,0.06,-0.27,-0.29,0.4
13.416334867477417,-0.32,-0.59,-0.26,0.71
13.424095869064331,-0.72,-0.58,0.37,0.99
13.425721883773804,-0.49,-0.35,0.91,1.09
13.441752195358276,-0.18,0.28,0.51,0.6
13.464004039764404,0.21,0.45,-0.35,0.6
13.465684175491333,0.27,0.02,-0.85,0.89
13.474040985107422,0.17,-0.02,-0.72,0.74
13.475673913955688,-0.03,-0.13,-0.06,0.14
13.490869998931885,-0.15,0.66,0.73,0.99
13.512023210525513,0.27,1.19,0.68,1.39
13.513994932174683,0.15,0.8,-0.02,0.81
13.523230075836182,-0.79,-0.29,-0.03,0.84
13.524821043014526,-1.84,-1.65,0.69,2.56
13.539870023727417,-0.98,-0.32,0.85,1.33
13.560857057571411,0.89,-2.82,-1.99,3.56
13.56278109550476,1.19,-1.56,-3.18,3.73
13.573320150375366,-0.37,1.03,-1.45,1.81
13.574913024902344,-0.11,1.57,0.8,1.76
13.589266061782837,0.26,0.84,1.42,1.67
13.61031198501587,-0.02,-0.05,1.0,1.0
13.612218141555786,-0.59,-0.5,0.24,0.8
13.623822927474976,-1.04,-1.08,-0.29,1.52
13.625418901443481,-0.84,-0.61,-0.09,1.04
13.640528917312622,0.43,0.48,-0.02,0.64
13.66185998916626,0.8,1.11,-0.57,1.48
13.663774013519287,0.17,0.61,-0.8,1.02
13.673727989196777,-0.31,-0.16,-0.14,0.37
13.67533802986145,-0.27,-0.5,0.2,0.6
13.690502882003784,-0.49,-0.49,0.11,0.7
13.711829900741577,-0.81,0.18,0.53,0.98
13.713781118392944,-0.36,0.87,0.68,1.16
13.723079919815063,0.48,0.81,-0.17,0.95
13.724725008010864,0.71,0.18,-1.12,1.33
13.740272998809814,0.55,-0.05,-1.51,1.6
13.76243805885315,0.47,-0.57,-1.72,1.87
13.763228178024292,0.33,-1.08,-1.46,1.84
13.765202045440674,0.75,-0.39,-0.97,1.28
13.774390935897827,1.66,0.72,-1.18,2.16
13.77590012550354,1.14,1.48,-1.67,2.5
13.797691106796265,0.97,1.47,-1.44,2.27
13.79946494102478,0.49,1.26,0.06,1.35
13.80703091621399,0.01,0.84,1.0,1.3
13.808592081069946,-0.64,-0.11,1.15,1.32
13.824871063232422,-0.71,-0.72,0.3,1.05
13.82837986946106,-0.43,0.44,-0.14,0.63
13.829079866409302,1.07,0.69,-0.87,1.54
13.849125146865845,-0.45,-0.68,0.33,0.87
13.85118317604065,-2.25,-1.73,2.43,3.73
13.856405973434448,0.12,0.4,1.21,1.28
13.877887964248657,-1.08,0.49,-0.4,1.25
13.879886865615845,-0.96,0.22,0.34,1.04
13.891198873519897,-0.38,0.1,0.35,0.52
13.89265513420105,-0.38,-0.34,-0.65,0.82
13.907363176345825,-0.67,-1.71,-0.76,1.98
13.929075956344604,-1.75,-1.55,0.37,2.36
13.931031942367554,1.52,2.73,0.22,3.13
13.941217184066772,0.77,1.87,-1.48,2.5
13.9427649974823,0.53,1.05,0.26,1.2
13.957805871963501,-0.23,0.57,1.4,1.52
13.979587078094482,-1.25,-1.34,0.46,1.88
13.98154616355896,-1.87,-1.35,1.05,2.53
13.99086308479309,0.49,0.96,-0.28,1.11
13.992407083511353,-1.33,-3.34,-3.14,4.77
14.008277177810669,0.25,-3.72,-1.59,4.05
14.030236005783081,0.67,-1.31,0.72,1.63
14.032161951065063,0.5,0.85,0.48,1.09
14.041020154953003,0.77,2.24,-1.12,2.62
14.042546033859253,1.04,1.54,-3.02,3.54
14.057626962661743,0.51,2.07,-0.4,2.16
14.079693078994751,0.59,2.35,1.94,3.1
14.081681966781616,0.89,2.08,1.76,2.86
14.090781927108765,0.85,1.08,0.62,1.5
14.09236216545105,-0.42,-0.1,1.62,1.67
14.107398986816406,-1.95,-1.43,1.54,2.86
14.129554033279419,-0.64,0.65,-1.41,1.67
14.131541967391968,1.34,-1.62,-4.04,4.55
14.141435861587524,0.57,-1.35,-2.2,2.64
14.143059968948364,0.06,-1.57,-0.11,1.57
14.158540964126587,-0.92,-2.06,0.11,2.25
14.180905103683472,-0.8,-0.48,-0.16,0.94
14.182878017425537,-0.07,0.57,-0.33,0.66
14.19109320640564,-0.01,-0.69,-0.44,0.81
14.192649126052856,-0.11,0.24,-0.03,0.26
14.207628011703491,-0.21,0.13,-0.11,0.27
14.22970199584961,-0.92,-1.2,0.02,1.51
14.231606006622314,-0.45,0.36,0.11,0.58
14.241000890731812,-0.33,0.29,0.08,0.44
14.242547035217285,0.34,0.35,-0.49,0.69
14.257577180862427,1.47,1.18,-0.66,1.99
14.279591083526611,-0.07,0.62,0.61,0.87
14.281490087509155,-0.97,-0.32,0.83,1.31
14.291830062866211,-0.58,-0.43,-0.32,0.78
14.293276071548462,-0.44,-0.43,-0.47,0.77
14.307173013687134,0.29,-0.06,-1.06,1.1
14.329308032989502,0.8,-0.19,-0.74,1.1
14.330995082855225,0.6,-0.25,-0.35,0.73
14.341948986053467,0.51,0.19,-0.24,0.59
14.343498945236206,-0.08,0.12,0.32,0.35
14.357308149337769,-0.25,0.65,0.65,0.95
14.379554033279419,-0.76,0.78,1.18,1.6
14.381578207015991,-0.35,1.02,1.37,1.74
14.392016172409058,-0.18,0.56,1.36,1.48
14.393557071685791,-0.1,0.4,-0.6,0.72
14.408565044403076,-0.25,0.05,-0.29,0.38
14.430969953536987,0.15,-0.32,-0.71,0.79
14.43299412727356,0.25,0.11,-0.63,0.68
14.442353963851929,0.33,0.32,-0.67,0.81
14.443863153457642,0.11,0.26,0.06,0.28
14.45853304862976,-0.69,-1.79,0.18,1.92
14.480809926986694,-0.82,-1.37,-1.42,2.13
14.482800006866455,-0.39,0.09,-2.27,2.3
14.49163007736206,0.36,0.28,0.17,0.48
14.493174076080322,0.95,-0.56,0.39,1.16
14.508157014846802,0.59,1.7,0.26,1.81
14.53045916557312,0.12,1.18,1.69,2.06
14.532387018203735,-0.66,0.87,0.42,1.17
14.542327165603638,-0.46,0.73,0.49,0.99
14.543905019760132,-0.49,0.01,-0.26,0.55
14.558364152908325,-0.19,-0.95,-1.28,1.6
14.580420017242432,0.59,-0.24,-0.6,0.87
14.582391023635864,0.58,-0.55,-0.94,1.23
14.592664957046509,0.52,-0.27,-0.41,0.71
14.594228029251099,0.02,-0.2,-0.3,0.36
14.608480215072632,-0.15,-0.13,-0.17,0.26
14.631672143936157,-0.01,0.01,-0.13,0.13
14.6338210105896,-0.11,0.03,-0.1,0.15
14.642371892929077,-0.33,0.01,0.11,0.34
14.643996000289917,-0.4,0.17,0.17,0.46
14.659136056900024,-0.14,0.09,-0.45,0.47
14.681595087051392,0.07,-0.05,0.3,0.31
14.683562994003296,-0.17,0.2,0.45,0.52
14.690898180007935,-0.16,0.64,0.19,0.68
14.692414045333862,-0.15,0.6,0.37,0.72
14.708522081375122,-0.11,0.43,0.3,0.53
14.730845212936401,0.0,0.18,-0.04,0.18
14.732874155044556,0.12,0.07,-0.09,0.16
14.742542028427124,0.16,0.07,-0.15,0.23
14.743998050689697,0.18,0.08,-0.08,0.21
14.758381128311157,1.01,-4.06,-4.68,6.27
14.780557870864868,3.71,-5.65,-7.42,10.03
14.782487154006958,2.82,0.56,4.68,5.49
14.792213201522827,-0.23,-0.01,1.51,1.52
14.793780088424683,-2.16,2.47,-1.12,3.46
14.811063051223755,-0.8,2.58,2.51,3.68
14.834022998809814,-0.96,1.74,2.92,3.53
14.835933923721313,-2.24,0.72,0.69,2.45
14.841346979141235,-0.77,-0.83,-0.84,1.4
14.842945098876953,-0.1,-1.22,-1.08,1.63
14.858910083770752,0.66,-1.83,-1.95,2.75
14.881340026855469,0.88,-1.85,-1.45,2.5
14.883241891860962,0.49,-1.54,-1.12,1.96
14.892333984375,0.15,-0.96,-1.15,1.5
14.893841028213501,-0.13,-0.55,-0.53,0.77
14.908114194869995,-0.2,0.25,0.0,0.32
14.9307382106781,-0.18,0.72,1.06,1.29
14.932507038116455,0.19,-0.1,0.8,0.82
14.943203210830688,0.39,-0.94,-0.16,1.03
14.945029973983765,-0.67,2.08,1.08,2.43
14.958961009979248,-0.3,1.27,0.73,1.49
14.981642961502075,-0.23,0.94,1.08,1.45
14.983686208724976,-0.11,0.31,0.69,0.76
14.991533994674683,0.08,-0.14,-0.07,0.17
14.993141889572144,0.23,-0.3,-0.29,0.47
15.009278059005737,0.33,-0.27,-0.65,0.77
15.031888008117676,0.17,-0.2,-0.63,0.68
15.033774137496948,0.01,-0.16,-0.44,0.46
15.042792081832886,-0.07,-0.15,-0.12,0.2
15.044324159622192,-0.02,-0.02,0.14,0.14
15.058359861373901,0.08,0.07,0.22,0.24
15.080786943435669,0.2,0.1,0.15,0.26
15.082564115524292,0.37,0.07,-0.09,0.38
15.092396974563599,0.42,-0.08,-0.32,0.53
15.09395718574524,0.26,-0.31,-0.29,0.49
15.10879111289978,0.11,-0.26,-0.29,0.4
15.131469011306763,0.17,-0.16,-0.16,0.28
15.13341999053955,0.05,0.11,0.17,0.2
15.142030954360962,-0.1,0.11,0.22,0.26
15.143442869186401,0.06,0.02,0.1,0.11
15.158270120620728,0.24,-0.15,-0.19,0.34
15.181123971939087,0.24,-0.29,-0.3,0.48
15.18301510810852,0.11,-0.21,-0.32,0.39
15.192723035812378,-0.02,-0.09,-0.13,0.15
15.194321870803833,0.0,-0.01,0.05,0.05
15.208400011062622,0.08,0.03,0.04,0.09
15.23096489906311,0.09,0.02,0.0,0.09
15.232632875442505,0.13,-0.08,-0.15,0.21
15.242818117141724,0.22,-0.12,-0.35,0.43
15.24449896812439,0.11,-0.11,-0.19,0.24
15.25806999206543,0.06,-0.06,-0.15,0.17
15.28075098991394,0.18,-0.08,-0.12,0.23
15.282597064971924,0.14,0.13,-0.02,0.19
15.292604207992554,0.14,0.18,-0.22,0.31
15.293951034545898,0.4,0.17,-0.36,0.56
15.309079885482788,0.6,-0.28,-0.39,0.76
15.331861019134521,0.5,-0.21,0.17,0.56
15.333797216415405,0.33,0.33,-0.03,0.46
15.342360019683838,0.07,0.43,-0.21,0.48
15.343909978866577,-0.26,0.03,-0.11,0.28
15.358756065368652,-0.07,-0.06,-0.33,0.34
15.3822500705719,0.02,-0.37,-0.24,0.44
15.383011102676392,-0.1,-0.23,-0.1,0.27
15.384953022003174,-0.42,0.17,-0.17,0.48
15.39120888710022,-0.71,0.23,-0.09,0.75
15.392805099487305,-0.69,0.4,-0.36,0.87
15.416266202926636,-0.55,0.36,-0.57,0.87
15.417843103408813,-0.19,0.19,-0.23,0.35
15.423986196517944,0.09,0.34,-0.01,0.35
15.425429105758667,0.0,0.48,0.22,0.52
15.44311809539795,-0.32,0.62,-0.03,0.69
15.465959072113037,-0.62,0.52,-0.59,1.0
15.467870950698853,-0.49,0.15,-0.84,0.98
15.475980997085571,-0.21,0.04,-0.8,0.82
15.477554082870483,0.02,0.19,-0.37,0.41
15.492197036743164,-0.06,0.57,-0.3,0.64
15.51498818397522,-0.46,0.94,-0.09,1.05
15.517007112503052,-0.83,1.03,-0.33,1.36
15.525717973709106,-0.9,0.82,-0.53,1.32
15.527334928512573,-0.65,0.71,-0.78,1.23
15.54264521598816,0.06,0.83,-1.2,1.46
15.565502882003784,0.47,0.8,-1.11,1.44
15.567353010177612,0.15,0.56,0.19,0.61
15.575330972671509,0.27,0.61,1.1,1.28
15.576869010925293,0.53,0.93,-0.22,1.09
15.592446088790894,0.22,0.36,-1.61,1.66
15.61526107788086,0.23,-0.55,-1.56,1.67
15.617181062698364,0.25,-0.24,-0.39,0.52
15.626097917556763,0.23,0.14,0.57,0.63
15.627636194229126,0.31,0.92,0.47,1.07
15.642739057540894,0.57,1.46,0.07,1.56
15.665685892105103,1.03,1.31,-0.28,1.68
15.667627096176147,1.28,0.91,-0.55,1.66
15.676611185073853,1.45,0.36,-0.67,1.63
15.678293943405151,1.47,0.07,-0.79,1.67
15.692604064941406,1.1,0.08,-0.78,1.35
15.71549391746521,0.49,0.42,-0.5,0.81
15.717433214187622,-0.22,0.63,-0.11,0.67
15.725703001022339,-0.68,0.45,0.21,0.84
15.727238893508911,-0.74,0.18,0.1,0.76
15.74258017539978,-0.53,0.07,-0.12,0.54
15.765663862228394,-0.08,0.16,-0.48,0.51
15.767515897750854,0.34,0.22,-0.68,0.79
15.775316953659058,0.45,0.25,-0.81,0.95
15.777039051055908,0.91,0.48,-1.09,1.49
15.79453706741333,0.55,0.57,-1.17,1.41
15.818120002746582,-0.54,0.28,-0.62,0.86
15.819998025894165,-2.76,0.49,0.01,2.8
15.824282884597778,-5.27,1.0,0.65,5.4
15.82579493522644,-5.54,1.13,0.7,5.69
15.840748071670532,-3.44,0.72,0.06,3.51
15.864022970199585,-1.85,0.14,-0.48,1.91
15.865909099578857,-2.19,0.98,-0.54,2.45
15.87466311454773,-3.45,1.33,-0.23,3.7
15.876229047775269,-4.18,0.8,0.56,4.29
15.890803098678589,-3.73,0.27,0.79,3.82
15.914057970046997,-3.53,-0.16,0.44,3.56
15.91596007347107,-3.33,0.04,-0.05,3.33
15.924986124038696,-2.84,-0.01,-0.46,2.87
15.926564931869507,-1.72,-0.06,-0.43,1.77
15.941612958908081,-0.61,0.25,-0.63,0.91
15.96487021446228,-0.41,0.18,-0.57,0.72
15.966751098632812,-0.54,0.01,-0.49,0.72
15.974344968795776,0.34,0.12,-0.44,0.56
15.975934028625488,0.47,0.08,-0.49,0.68
15.990864038467407,-0.64,-0.12,-0.53,0.83
16.014434099197388,-1.11,-0.08,-0.35,1.16
16.016348123550415,-1.56,0.28,-0.84,1.79
16.024955987930298,-1.96,0.73,-0.45,2.13
16.026519060134888,-1.8,1.01,0.54,2.13
16.04057002067566,-1.76,0.6,1.08,2.15
16.06384801864624,-2.02,-0.79,0.82,2.31
16.065685033798218,-1.98,-1.03,-0.16,2.23
16.074340105056763,-1.83,0.04,-0.85,2.01
16.07593321800232,-1.06,0.71,0.1,1.27
16.090614080429077,-0.58,0.33,0.95,1.16
16.114018201828003,-0.53,-0.58,0.78,1.1
16.116018056869507,-0.84,-0.49,-0.48,1.08
16.124929189682007,-1.26,-0.57,-1.28,1.88
16.126493215560913,-1.33,-0.8,-0.28,1.57
16.142744064331055,-1.16,-0.2,0.31,1.21
16.14550805091858,-1.0,0.1,-0.16,1.01
16.167733907699585,-0.94,-0.01,-0.48,1.05
16.169843912124634,-0.83,-0.57,-0.06,1.0
16.175071954727173,-0.72,-0.37,0.54,0.97
16.17671298980713,-0.65,0.16,0.42,0.79
16.200987100601196,-0.51,0.35,0.08,0.62
16.202819108963013,-0.38,0.0,-0.25,0.45
16.208142042160034,-0.22,-0.89,-0.03,0.91
16.209704160690308,-0.13,-1.05,0.0,1.05
16.224287033081055,0.08,-0.91,-0.6,1.09
16.247843980789185,0.39,-0.98,-0.51,1.17
16.2497341632843,0.62,-0.99,-0.3,1.2
16.2581570148468,0.73,-0.72,-0.33,1.07
16.259767055511475,0.58,-0.47,-0.09,0.75
16.27470898628235,0.33,-0.5,-0.23,0.64
16.29834008216858,0.04,-0.4,-0.76,0.85
16.300291061401367,-0.18,-1.32,-0.85,1.58
16.308045148849487,-0.06,-1.33,0.24,1.35
16.30956506729126,0.28,-1.18,0.44,1.29
16.324694871902466,0.57,-1.84,1.37,2.36
16.348507165908813,0.76,-1.49,1.04,1.96
16.35043215751648,0.93,-1.02,0.39,1.43
16.35811686515808,1.14,-1.69,0.25,2.05
16.359709978103638,1.22,-2.3,0.73,2.7
16.3748619556427,1.08,-1.66,-0.22,1.99
16.398629903793335,0.51,-0.56,-1.56,1.73
16.400532960891724,0.65,-0.99,0.45,1.26
16.408132076263428,1.31,-2.16,2.69,3.69
16.409759044647217,1.28,-3.04,2.11,3.91
16.425244092941284,0.58,-0.95,0.03,1.11
16.44892907142639,0.09,1.11,-1.95,2.24
16.450777053833008,0.83,0.31,-0.25,0.92
16.45798897743225,1.42,-2.57,1.67,3.37
16.45956802368164,1.96,-1.79,1.13,2.88
16.474914073944092,1.48,1.82,-3.15,3.92
16.498759031295776,1.5,2.84,-3.39,4.66
16.50063395500183,1.42,0.91,-0.41,1.73
16.508250951766968,1.47,-2.32,0.95,2.9
16.509854078292847,1.97,-1.69,0.88,2.74
16.52508521080017,2.03,2.33,-2.72,4.11
16.549108028411865,2.94,0.26,-3.05,4.24
16.551016092300415,1.92,-2.3,1.72,3.45
16.558357000350952,0.34,-0.09,2.36,2.38
16.559904098510742,0.02,2.18,-0.12,2.18
16.575816869735718,1.37,0.64,-1.12,1.88
16.600117921829224,0.68,-1.76,-2.03,2.77
16.602087020874023,-0.13,-0.17,-4.41,4.41
16.608297109603882,0.8,-0.02,-4.09,4.16
16.609817028045654,0.55,1.43,-1.34,2.03
16.62474298477173,0.08,3.25,1.9,3.76
16.64908003807068,1.52,3.81,7.32,8.39
16.650920152664185,1.27,0.65,6.73,6.87
16.658040046691895,-0.39,-0.58,-0.04,0.7
16.659638166427612,-1.23,-1.63,-6.47,6.78
16.67621898651123,-1.2,-3.46,-5.45,6.56
16.700781106948853,-0.96,-5.11,-1.84,5.51
16.702781915664673,-0.9,-3.75,-0.88,3.95
16.70823907852173,0.89,-1.15,3.1,3.42
16.709747076034546,1.92,1.9,7.73,8.18
16.725703954696655,0.75,0.41,6.28,6.33
16.749976873397827,-0.44,-3.17,2.77,4.23
16.75189995765686,-1.13,-3.61,-1.73,4.15
16.7591450214386,-1.5,-0.42,-6.92,7.09
16.760688066482544,-1.45,1.7,-5.1,5.56
16.778127908706665,0.34,-3.34,1.39,3.63
16.802695989608765,1.35,-1.55,5.56,5.92
16.804581880569458,1.25,0.78,4.0,4.26
16.80798888206482,0.67,0.11,0.51,0.84
16.825313091278076,0.04,-1.96,-1.51,2.47
16.826894998550415,-0.19,-1.46,-2.47,2.87
16.851253032684326,0.16,-0.07,-1.44,1.45
16.853010892868042,0.95,0.46,0.64,1.23
16.857961893081665,1.11,0.73,2.22,2.58
16.85957908630371,0.86,-1.13,1.74,2.24
16.87497901916504,0.44,-1.3,-1.0,1.69
16.899327039718628,0.16,-0.12,-3.17,3.17
16.901231050491333,0.39,1.26,-2.04,2.42
16.909458875656128,0.91,0.57,0.29,1.11
16.911092042922974,1.13,1.04,1.64,2.24
16.927067041397095,1.06,0.97,1.09,1.8
16.951349020004272,0.45,-0.23,-0.41,0.65
16.953346967697144,0.0,-1.36,-1.24,1.84
16.95813298225403,-0.06,-0.62,-1.55,1.67
16.95976996421814,-0.13,0.76,-1.96,2.1
16.975745916366577,0.21,1.01,0.31,1.07
17.000770092010498,0.22,0.6,1.79,1.9
17.002743005752563,-0.09,-1.33,0.82,1.56
17.00953221321106,-0.55,-1.19,-1.52,2.0
17.011274099349976,-0.44,-1.67,-1.94,2.59
17.0268452167511,-0.35,-0.19,0.06,0.4
17.05170202255249,-0.05,1.16,1.92,2.24
17.05369210243225,0.15,1.13,2.9,3.11
17.059027910232544,0.0,-0.2,1.68,1.69
17.06057906150818,0.18,-0.5,0.09,0.53
17.076232194900513,0.26,-0.63,-1.61,1.74
17.100751161575317,0.16,-1.24,-2.07,2.41
17.102741956710815,-0.35,1.43,-3.38,3.68
17.108659982681274,-1.3,2.24,-2.87,3.86
17.110419988632202,-0.93,1.07,1.6,2.13
17.126434087753296,-0.06,1.34,3.44,3.69
17.150770902633667,0.77,0.03,1.72,1.88
17.15282702445984,1.1,-1.17,-2.06,2.61
17.15871500968933,0.37,-0.34,-2.53,2.57
17.16030502319336,-0.33,0.49,-1.99,2.07
17.17620301246643,-0.93,0.2,0.36,1.01
17.200934171676636,-1.19,0.75,2.13,2.55
17.202903032302856,-0.42,-0.51,3.32,3.38
17.209004163742065,0.28,-1.76,1.51,2.33
17.21065402030945,-0.49,-1.22,-2.56,2.87
17.22630286216736,-1.99,0.1,-2.34,3.07
17.250993967056274,-2.19,-2.12,0.82,3.15
17.25315809249878,-1.96,-2.34,2.52,3.95
17.25840401649475,-1.69,-2.25,3.44,4.44
17.259987115859985,-1.71,-1.71,1.81,3.02
17.27644991874695,-1.34,-1.23,0.49,1.88
17.30140709877014,-0.79,-0.14,0.77,1.11
17.303509950637817,-0.47,0.05,0.42,0.63
17.30909299850464,0.0,0.1,-0.37,0.38
17.310882091522217,0.77,1.35,-1.87,2.43
17.32643699645996,2.34,1.44,-3.4,4.37
17.351630926132202,2.95,0.71,-1.44,3.35
17.353720903396606,2.6,1.57,1.97,3.62
17.358704090118408,0.8,0.37,0.84,1.21
17.36032199859619,-1.24,-2.12,-0.96,2.63
17.376862049102783,-2.26,-2.31,-1.01,3.38
17.402374029159546,-2.91,-0.67,-0.98,3.14
17.404372930526733,-1.77,0.77,-0.22,1.94
17.40841507911682,-1.13,2.17,2.32,3.37
17.410075902938843,-0.04,0.85,3.67,3.76
17.426573038101196,1.23,-0.84,0.24,1.5
17.451747179031372,0.59,-0.21,-4.99,5.02
17.453953981399536,0.15,-0.56,-1.76,1.85
17.45903515815735,1.15,-0.28,0.69,1.37
17.46063208580017,2.15,1.02,0.56,2.44
17.47579598426819,1.86,0.85,0.25,2.06
17.501023054122925,1.38,0.32,-0.35,1.45
17.503055095672607,1.19,-0.68,-0.74,1.55
17.5088632106781,0.37,-0.64,-1.32,1.51
17.510586977005005,-0.29,-0.11,-0.5,0.58
17.525893926620483,0.77,0.08,0.75,1.07
17.550459146499634,1.95,0.38,0.46,2.03
17.552415132522583,1.66,-0.08,-0.33,1.69
17.559419870376587,0.59,0.01,-0.59,0.83
17.560986042022705,0.47,-0.28,-0.58,0.79
17.576478004455566,0.68,0.4,-0.6,0.99
17.60131001472473,0.44,0.55,-0.67,0.97
17.60326313972473,0.64,0.07,-0.22,0.68
17.609551191329956,1.13,0.0,-0.6,1.27
17.611093997955322,1.16,0.24,-0.58,1.31
17.62560200691223,0.55,0.14,0.05,0.56
17.650197982788086,0.23,-0.31,0.41,0.56
17.652008056640625,0.23,-0.51,-0.11,0.57
17.659102201461792,0.06,-0.05,-0.39,0.39
17.660675048828125,-0.1,0.14,-0.09,0.19
17.675813913345337,0.12,0.12,-0.09,0.19
17.700184106826782,-0.02,0.17,-0.56,0.58
17.702097177505493,-0.57,0.3,-0.5,0.81
17.708790063858032,-0.79,0.32,-0.1,0.85
17.71052098274231,-0.55,0.28,0.08,0.62
17.726720094680786,-0.71,0.44,-0.16,0.85
17.747682094573975,-1.08,0.54,-0.29,1.24
17.74964213371277,-1.01,0.52,-0.19,1.15
17.761149168014526,-0.99,0.37,-0.07,1.05
17.762331008911133,-1.19,0.29,0.05,1.22
17.77585005760193,-1.13,0.2,-0.08,1.15
17.79517102241516,-0.8,0.24,-0.16,0.85
17.79671597480774,-0.77,0.22,-0.05,0.8
17.809482097625732,-0.92,-0.03,0.11,0.92
17.810746908187866,-0.91,-0.24,0.18,0.95
17.825342893600464,-0.9,-0.15,0.18,0.93
17.844560861587524,-1.13,-0.09,0.28,1.16
17.846155881881714,-1.25,-0.31,0.43,1.35
17.859678983688354,-1.08,-0.6,0.6,1.37
17.860944986343384,-0.88,-0.66,0.23,1.12
17.875476121902466,-0.85,-0.51,0.24,1.01
17.894700050354004,-0.82,-0.64,0.53,1.16
17.896207094192505,-0.54,-0.92,0.39,1.13
17.91021203994751,-0.18,-1.09,0.32,1.15
17.911465883255005,0.01,-1.04,0.27,1.07
17.926532983779907,0.07,-1.06,0.38,1.12
17.945202112197876,0.07,-1.18,0.5,1.28
17.946653127670288,0.03,-1.33,0.59,1.45
17.959451913833618,-0.09,-1.21,0.61,1.35
17.9608051776886,-0.04,-1.02,0.47,1.12
17.976042985916138,-0.14,-0.48,0.17,0.52
17.995035886764526,-0.38,0.03,-0.08,0.38
17.99651789665222,-0.38,-0.01,0.21,0.43
18.009963035583496,-0.15,0.07,0.0,0.16
18.011171102523804,0.21,0.13,-0.36,0.43
18.026017904281616,0.23,-0.21,-0.43,0.53
18.04483699798584,0.23,-0.19,-0.51,0.59
18.046308040618896,0.21,-0.09,-0.53,0.57
18.0602970123291,0.17,0.1,-0.13,0.23
18.06148099899292,0.2,0.04,0.28,0.34
18.07519221305847,0.1,-0.08,0.19,0.22
18.09410786628723,0.02,-0.16,-0.05,0.16
18.09557318687439,-0.06,0.72,-0.17,0.74
18.11006808280945,-0.25,0.59,-0.1,0.64
18.111398935317993,-0.55,0.1,-0.59,0.81
18.126739025115967,-0.71,-0.05,-1.11,1.31
18.14601492881775,-0.59,0.31,-0.5,0.83
18.14754009246826,-0.3,0.76,0.22,0.84
18.159580945968628,-0.02,0.79,0.48,0.92
18.160858869552612,0.21,0.5,-0.17,0.56
18.176457166671753,0.34,0.06,-0.62,0.7
18.1958110332489,0.02,-0.2,-0.67,0.69
18.197280168533325,-0.23,-0.33,-0.46,0.61
18.20918917655945,-0.41,0.03,-0.44,0.6
18.21055006980896,-0.48,-0.19,0.3,0.59
18.22642493247986,-0.18,-0.15,0.78,0.81
18.245645999908447,0.16,0.17,0.26,0.34
18.247230052947998,0.36,0.27,-0.12,0.46
18.261319875717163,0.15,-0.04,-0.39,0.41
18.26254105567932,-0.25,-0.29,-0.52,0.64
18.276782035827637,-0.43,-0.28,-0.6,0.78
18.29592204093933,-0.13,-0.23,-0.33,0.42
18.2974910736084,0.46,0.03,0.08,0.46
18.311132192611694,0.77,0.17,0.34,0.85
18.31250309944153,0.6,0.14,0.21,0.65
18.32669711112976,0.29,-0.04,-0.22,0.36
18.34593892097473,0.25,-0.14,-0.52,0.59
18.347482919692993,0.36,-0.09,-0.6,0.7
18.360664129257202,0.51,0.03,-0.49,0.7
18.36161708831787,0.51,0.25,-0.42,0.7
18.376872062683105,0.38,0.08,-0.17,0.42
18.39772391319275,0.2,0.02,-0.05,0.2
18.399201154708862,0.27,-0.38,0.09,0.47
18.41085410118103,0.44,-0.43,0.18,0.64
18.41206407546997,0.55,-0.24,-0.02,0.6
18.425659894943237,0.55,-0.22,-0.13,0.6
18.444998025894165,0.39,-0.18,-0.25,0.49
18.446606874465942,0.24,-0.2,-0.14,0.34
18.460572004318237,0.11,-0.23,-0.07,0.26
18.46163821220398,0.11,-0.22,-0.11,0.26
18.47517991065979,0.28,-0.03,-0.22,0.35
18.494656085968018,0.42,0.2,-0.17,0.49
18.49616003036499,0.46,0.41,-0.1,0.62
18.510804891586304,0.52,0.39,-0.27,0.7
18.51205086708069,0.45,0.39,-0.57,0.82
18.526164054870605,0.28,0.54,-0.7,0.92
18.545582056045532,0.11,0.72,-0.54,0.9
18.547083139419556,0.01,0.74,-0.5,0.89
18.560691118240356,0.07,0.62,-0.55,0.83
18.561875104904175,0.13,0.65,-0.56,0.86
18.576675176620483,0.18,0.7,-0.42,0.83
18.59560799598694,0.08,0.63,-0.34,0.72
18.59712815284729,-0.05,0.42,-0.27,0.5
18.610849142074585,0.05,0.49,-0.42,0.64
18.61205792427063,0.33,0.47,-0.53,0.78
18.625856161117554,0.42,0.22,-0.44,0.64
18.645192861557007,0.07,0.09,-0.21,0.23
18.64690613746643,-0.34,0.04,0.0,0.34
18.661123037338257,-0.31,0.1,-0.08,0.33
18.662307024002075,-0.07,-0.11,0.0,0.13
18.677027940750122,0.05,-0.25,0.08,0.26
18.695881128311157,0.02,-0.31,0.05,0.31
18.69740605354309,-0.02,-0.42,-0.06,0.42
18.710942029953003,-0.08,-0.4,0.03,0.4
18.712344884872437,-0.14,-0.35,0.23,0.44
18.727215051651,-0.19,-0.44,0.32,0.57
18.747130155563354,-0.3,-0.41,0.26,0.57
18.748503923416138,-0.34,-0.28,0.17,0.47
18.760781049728394,-0.23,-0.24,0.08,0.34
18.761980056762695,-0.14,-0.29,-0.04,0.32
18.777415990829468,-0.39,0.11,-0.24,0.47
18.796663999557495,-0.63,0.04,-0.14,0.64
18.798235177993774,-0.6,0.36,-0.16,0.71
18.810989141464233,-0.37,0.63,-0.05,0.73
18.812165021896362,-0.17,0.52,0.08,0.55
18.82694101333618,-0.1,-0.15,-0.22,0.28
18.846246004104614,-0.29,-0.17,-0.63,0.71
18.847956895828247,-0.73,0.48,-0.64,1.08
18.860882997512817,-0.92,1.11,-0.09,1.44
18.862088918685913,-0.39,0.64,0.04,0.75
18.876824140548706,0.3,0.05,-0.36,0.47
18.89586615562439,0.59,0.13,-0.61,0.85
18.897351026535034,0.59,0.41,-0.85,1.11
18.911595106124878,0.34,0.49,-0.78,0.98
18.912954092025757,-0.17,1.74,-0.09,1.75
18.927520990371704,-0.41,1.25,0.34,1.35
18.946392059326172,-0.22,0.64,-0.26,0.72
18.947957038879395,1.61,0.26,-1.14,1.98
18.96077609062195,0.93,1.45,-1.81,2.49
18.96198296546936,1.09,-3.44,-0.27,3.61
18.977681875228882,-0.46,2.5,-2.31,3.43
18.996801137924194,-0.1,3.22,-1.65,3.61
18.998324155807495,0.68,-0.82,3.48,3.63
19.01165795326233,0.54,1.71,1.21,2.16
19.012881994247437,-1.0,2.34,-2.0,3.23
19.02852201461792,-0.61,-1.19,0.28,1.36
19.047852993011475,-1.69,0.88,-3.08,3.62
19.04945707321167,-0.8,-2.48,-0.74,2.7
19.061379194259644,-1.15,2.91,0.96,3.27
19.062567949295044,-0.96,0.93,0.43,1.4
19.077014207839966,0.13,1.18,1.29,1.75
19.09594702720642,-0.34,-0.08,-1.17,1.22
19.097474098205566,0.32,0.11,-0.97,1.02
19.11129117012024,1.12,-0.64,-1.62,2.07
19.11262011528015,0.68,0.07,-1.18,1.36
19.128607034683228,0.92,0.67,-0.56,1.26
19.14835000038147,1.63,1.1,-1.07,2.23
19.1498281955719,2.0,1.1,-1.09,2.52
19.161663055419922,1.73,1.42,-0.95,2.43
19.16282296180725,1.58,1.71,-1.26,2.64
19.177889108657837,1.68,1.07,-0.73,2.12
19.197337865829468,1.41,0.57,-0.57,1.62
19.198791027069092,0.92,1.05,-1.31,1.91
19.211534023284912,0.44,1.68,-2.01,2.65
19.212688207626343,-0.2,1.36,-0.86,1.62
19.22694706916809,-0.58,1.31,0.19,1.44
19.247195959091187,-0.44,1.02,-0.19,1.12
19.24787211418152,-0.09,1.55,-1.17,1.94
19.24940299987793,0.08,1.33,-0.68,1.49
19.262058973312378,0.09,1.3,-0.05,1.3
19.26326298713684,0.11,0.86,-0.71,1.12
19.283183097839355,-0.3,0.78,-1.16,1.42
19.284496068954468,-0.77,0.57,-0.74,1.21
19.294473886489868,-0.83,1.62,-1.18,2.16
19.295648097991943,-0.47,1.89,-1.52,2.47
19.31138801574707,-0.23,1.11,-0.16,1.14
19.3310968875885,-0.31,1.87,-0.24,1.91
19.33265709877014,-0.15,2.45,-1.28,2.76
19.344568014144897,0.0,1.7,-1.75,2.43
19.34573197364807,-0.08,1.24,-2.18,2.5
19.360701084136963,-0.33,0.64,-2.14,2.25
19.38002300262451,-0.59,1.21,-1.66,2.13
19.38157820701599,-0.78,2.89,-2.22,3.72
19.39451289176941,-0.49,3.18,-2.67,4.18
19.39571213722229,0.36,2.71,-2.79,3.9
19.410688161849976,1.07,2.98,-1.71,3.59
19.430232048034668,1.02,2.83,0.27,3.02
19.431761026382446,0.48,2.71,0.42,2.78
19.444451093673706,-0.32,2.15,-2.29,3.15
19.445654153823853,-1.0,2.18,-4.99,5.53
19.460588216781616,-0.71,2.5,-6.31,6.82
19.47945809364319,0.43,1.54,-4.8,5.05
19.480993032455444,1.68,3.73,-3.96,5.69
19.494611978530884,1.42,4.99,-1.6,5.42
19.495959997177124,0.56,3.97,0.6,4.05
19.51121687889099,-0.41,2.38,0.8,2.54
19.53044295310974,-0.64,1.62,-0.78,1.9
19.531930208206177,-1.0,3.12,-0.74,3.35
19.544409036636353,-0.99,5.02,1.34,5.28
19.54555606842041,-0.83,4.88,2.58,5.58
19.560667037963867,-1.3,2.83,1.73,3.56
19.579806089401245,-1.83,1.61,-2.15,3.25
19.581243991851807,-2.06,0.85,-3.5,4.14
19.594652891159058,-2.07,0.84,-1.98,2.98
19.59581208229065,-1.77,-0.07,0.28,1.79
19.61047387123108,-1.76,0.55,1.23,2.21
19.629721879959106,-2.43,0.53,-1.72,3.02
19.63123393058777,-2.76,-0.62,-2.52,3.78
19.644673109054565,-2.32,-0.11,-1.16,2.59
19.64591407775879,-1.18,3.06,0.6,3.33
19.661306142807007,-0.58,5.61,-0.7,5.68
19.68037700653076,-0.41,1.23,-2.74,3.03
19.681860208511353,-0.68,-3.28,-1.41,3.63
19.6948139667511,-0.74,-0.3,-2.37,2.5
19.69615602493286,0.09,3.52,-1.98,4.03
19.711241006851196,0.97,4.92,2.82,5.75
19.73141598701477,1.21,5.4,3.1,6.34
19.732904195785522,1.03,2.64,-1.14,3.05
19.744567155838013,0.91,-0.77,-4.87,5.01
19.745740175247192,1.83,-2.67,-1.99,3.79
19.76114010810852,2.35,-1.34,-0.83,2.82
19.780566930770874,2.19,3.75,-3.09,5.32
19.782020092010498,1.87,5.79,-5.3,8.06
19.79453706741333,2.26,0.28,-2.54,3.41
19.795707941055298,2.3,-3.06,0.52,3.86
19.810698986053467,1.06,-0.39,-0.87,1.42
19.830289125442505,-0.13,1.81,-0.37,1.85
19.831774950027466,-0.56,3.86,-0.77,3.97
19.83295202255249,-0.76,1.27,-1.54,2.13
19.833486080169678,-0.55,-2.03,2.0,2.9
19.845144033432007,-1.07,0.8,0.98,1.65
19.86449909210205,-1.38,2.24,-1.63,3.09
19.866014003753662,-1.33,-1.2,0.29,1.81
19.878687143325806,-0.81,-2.18,2.36,3.31
19.879857063293457,-0.73,-0.68,2.07,2.29
19.894635915756226,-0.72,-0.37,1.99,2.14
19.913798093795776,-0.71,-1.36,2.32,2.78
19.915276050567627,-0.7,-2.0,3.05,3.71
19.92881989479065,-0.76,-3.13,3.24,4.56
19.930068016052246,-0.22,-5.15,2.65,5.79
19.944536924362183,0.82,-3.62,1.31,3.93
19.963685989379883,2.19,-1.29,-0.68,2.63
19.965265035629272,3.12,-3.02,0.79,4.41
19.979203939437866,2.89,-4.28,1.3,5.32
19.980444192886353,2.1,-3.32,-0.75,3.99
19.99444890022278,1.3,-1.89,-1.58,2.78
20.013561964035034,1.08,-0.41,-0.6,1.3
20.015127897262573,1.4,0.16,1.01,1.73
20.02893304824829,1.31,0.61,0.36,1.48
20.03031897544861,0.54,-0.83,-2.69,2.86
20.044985055923462,0.14,-2.27,-2.2,3.16
20.06404399871826,0.09,-1.72,-0.78,1.89
20.065566062927246,0.12,0.92,0.13,0.93
20.078344106674194,-0.3,1.51,-0.05,1.54
20.079524040222168,-1.12,2.08,-1.14,2.62
20.09480595588684,-1.37,1.37,-1.19,2.27
20.114012002944946,-1.86,-1.8,-1.39,2.93
20.11553692817688,-2.6,-1.09,-2.85,4.0
20.128494024276733,-1.96,0.92,-0.92,2.35
20.12968611717224,-0.16,3.54,2.26,4.2
20.144284963607788,0.4,2.14,4.29,4.81
20.1635479927063,-0.18,-3.05,4.19,5.18
20.165216207504272,-1.21,-2.55,0.04,2.82
20.17915415763855,-1.62,-0.58,-3.74,4.11
20.18033504486084,-0.16,-1.17,0.59,1.32
20.193702936172485,1.16,-0.17,2.74,2.98
20.21280002593994,1.26,0.3,2.37,2.7
20.214298009872437,0.82,1.82,0.72,2.12
20.2288019657135,0.26,3.43,-1.37,3.7
20.230133056640625,-0.14,-0.53,-2.12,2.18
20.246094942092896,-0.32,-1.69,-1.79,2.48
20.24868106842041,-0.85,-0.19,-4.07,4.16
20.266144037246704,-1.04,-1.68,0.46,2.02
20.267657041549683,-1.24,1.57,3.57,4.09
20.278733015060425,-0.68,3.53,2.53,4.39
20.279924154281616,-0.3,1.05,0.39,1.15
20.299737215042114,0.16,-2.07,-1.77,2.72
20.301202058792114,0.53,-2.7,-1.66,3.21
20.311661958694458,0.41,-0.16,-1.92,1.96
20.312855005264282,0.64,-0.72,0.97,1.36
20.32760500907898,0.13,2.32,-0.86,2.47
20.346873998641968,-1.39,3.33,-5.58,6.64
20.34839105606079,-1.07,-1.2,-2.0,2.56
20.36172604560852,-0.89,-1.13,0.7,1.59
20.363059043884277,-0.85,0.02,1.55,1.76
20.37824320793152,-0.98,0.94,0.82,1.58
20.397505044937134,-1.47,-1.28,0.7,2.07
20.3990740776062,-1.28,-0.69,1.92,2.4
20.411604166030884,-0.72,3.12,-0.41,3.22
20.41280508041382,0.4,-0.08,0.76,0.86
20.428020000457764,0.99,-2.16,0.76,2.49
20.447230100631714,0.75,-1.2,-3.56,3.83
20.44868302345276,-0.1,0.4,-3.33,3.35
20.4617919921875,-1.74,3.08,-1.42,3.81
20.462995052337646,-2.81,1.42,1.38,3.43
20.47855305671692,-2.54,-1.05,3.18,4.2
20.49786686897278,-1.27,0.17,2.2,2.54
20.49944806098938,-0.69,1.2,-0.18,1.39
20.51207399368286,-0.43,0.62,1.68,1.84
20.51326298713684,-0.9,0.86,4.23,4.4
20.527960062026978,-1.17,1.9,2.65,3.46
20.54719090461731,-0.53,0.72,-0.12,0.9
20.548727989196777,0.27,0.84,-2.57,2.71
20.561827898025513,0.88,0.27,-1.24,1.54
20.563183069229126,0.5,2.38,-0.95,2.61
20.578208208084106,-0.42,1.91,-4.08,4.52
20.597491025924683,-0.59,-1.34,-3.12,3.44
20.599066972732544,-0.42,-0.44,-1.85,1.94
20.611572980880737,-0.07,2.1,-0.91,2.28
20.612754106521606,0.18,3.32,-1.01,3.47
20.627960920333862,0.26,0.57,-0.65,0.9
20.64771819114685,-0.04,0.15,-0.13,0.2
20.649250984191895,-0.25,1.44,-1.49,2.08
20.66132092475891,-0.15,1.62,-3.08,3.48
20.662534952163696,-0.43,3.03,-1.16,3.27
20.677820920944214,-1.39,2.61,0.85,3.07
20.697057962417603,-1.51,-1.17,-0.05,1.91
20.69868803024292,-1.23,-0.31,-4.44,4.61
20.714210987091064,-1.02,-0.43,-2.88,3.08
20.71541714668274,-1.17,1.27,2.06,2.68
20.727766036987305,-1.42,2.1,2.62,3.64
20.746998071670532,-1.5,1.48,0.62,2.19
20.748503923416138,-1.64,-0.32,-3.34,3.73
20.762396097183228,-1.93,-3.64,-2.07,4.61
20.7637300491333,-2.31,-3.15,0.0,3.9
20.77841305732727,-3.04,0.76,1.6,3.51
20.797523021697998,-2.57,1.26,2.46,3.77
20.799046993255615,-1.44,0.3,-0.43,1.53
20.811861991882324,-1.12,-0.69,-3.49,3.72
20.81304907798767,-0.59,1.24,-1.31,1.89
20.827842950820923,0.19,0.2,2.24,2.25
20.84709405899048,0.95,-0.32,4.42,4.53
20.848695993423462,1.22,0.76,-0.39,1.48
20.862805128097534,0.98,1.68,-6.03,6.33
20.864036083221436,1.3,-0.28,-1.72,2.17
20.878429174423218,1.33,-1.5,0.89,2.19
20.89870810508728,1.38,-2.08,1.99,3.19
20.900264978408813,1.03,2.74,-1.35,3.22
20.913125038146973,0.03,6.59,-4.72,8.1
20.914429903030396,-0.7,3.34,-2.89,4.47
20.928269147872925,-0.36,-1.31,-0.85,1.6
20.94738793373108,-0.36,1.73,-1.92,2.6
20.948845148086548,-0.03,1.53,-0.17,1.53
20.962619066238403,-0.14,0.96,0.16,0.98
20.963967084884644,-0.5,1.59,-2.51,3.01
20.979098081588745,-0.71,0.11,-0.99,1.22
20.99841809272766,-0.9,0.77,0.01,1.18
20.999984979629517,-0.66,1.79,0.82,2.07
21.01227903366089,-0.35,4.99,-0.47,5.02
21.013449907302856,-0.66,2.35,-2.53,3.51
21.02842688560486,-0.69,-2.39,0.63,2.56
21.04786705970764,-1.07,1.74,0.74,2.17
21.04924988746643,-0.97,1.74,1.94,2.78
21.062054872512817,-0.95,1.11,0.98,1.75
21.063205003738403,-1.47,0.13,-3.95,4.21
21.07785201072693,-1.74,-3.42,-1.11,3.99
21.0969820022583,-1.77,-0.84,-0.24,1.97
21.098504066467285,-1.17,1.13,2.01,2.58
21.1135151386261,-0.67,1.39,3.03,3.4
21.114086866378784,-0.04,-1.34,1.16,1.77
21.11533808708191,0.04,-3.96,-0.48,3.98
21.13521409034729,0.45,-2.59,0.75,2.73
21.136597871780396,0.85,0.78,0.07,1.15
21.145560026168823,1.21,3.64,-0.6,3.88
21.146740198135376,1.28,4.49,0.37,4.68
21.161887884140015,0.52,1.61,-1.09,2.01
21.181509017944336,-0.66,-1.25,-0.63,1.54
21.18306612968445,-1.7,1.48,-3.8,4.41
21.19635319709778,-1.89,-1.06,-1.84,2.84
21.196966886520386,-2.14,0.93,0.07,2.33
21.198261976242065,-2.59,3.34,-1.66,4.54
21.219109058380127,-2.53,2.01,-0.56,3.27
21.22044801712036,-2.91,0.44,-0.14,2.94
21.228091955184937,-2.45,-1.02,2.74,3.81
21.229560136795044,-1.38,2.35,2.85,3.94
21.245277166366577,-0.03,2.1,-0.44,2.14
21.264540910720825,-0.19,0.11,-3.48,3.48
21.266133069992065,-2.28,1.02,-4.87,5.47
21.278949975967407,-3.0,-0.33,-3.54,4.65
21.280155897140503,-1.39,-4.25,0.39,4.48
21.295510053634644,-0.76,-2.24,1.28,2.68
21.315247058868408,-0.64,5.04,0.88,5.15
21.316822052001953,-0.77,7.14,2.79,7.7
21.32855200767517,0.32,-1.16,2.01,2.34
21.329792022705078,0.12,-4.23,-2.55,4.94
21.344743013381958,0.24,2.8,-10.15,10.53
21.363165140151978,0.71,-0.47,-5.04,5.11
21.364946126937866,0.69,-1.03,1.42,1.88
21.378846883773804,-0.4,3.41,-0.25,3.44
21.380038022994995,-1.1,2.62,-1.58,3.25
21.395456075668335,-1.14,-0.88,-1.59,2.14
21.413810968399048,-0.86,-2.06,-1.16,2.51
21.415369987487793,-0.97,-1.66,1.45,2.4
21.42904305458069,-0.94,-0.18,6.42,6.49
21.43041491508484,-0.9,1.19,8.71,8.83
21.445085048675537,-0.31,2.57,4.5,5.19
21.46315598487854,-0.79,5.09,-3.06,5.99
21.46471095085144,-0.24,2.92,-8.39,8.88
21.47843599319458,-0.15,-2.68,-3.23,4.19
21.47961688041687,0.28,-3.07,0.08,3.08
21.495294094085693,-0.63,-1.45,7.24,7.41
21.51359486579895,-1.68,0.97,12.4,12.55
21.51510787010193,-1.54,4.29,10.46,11.4
21.5295832157135,0.23,3.49,0.9,3.61
21.53079390525818,1.25,-1.49,-4.48,4.88
21.545585870742798,2.49,2.15,-7.51,8.19
21.56398606300354,0.96,2.93,-15.49,15.79
21.565551042556763,-0.08,-1.41,-9.2,9.3
21.579231023788452,-1.09,-3.49,-2.67,4.52
21.580445051193237,-0.47,-0.39,2.22,2.3
21.59472918510437,-0.63,6.79,4.68,8.27
21.613250970840454,1.87,7.54,-6.53,10.14
21.61492419242859,1.06,-0.9,-10.88,10.96
21.62939715385437,0.54,-7.37,-0.36,7.39
21.630572080612183,2.14,-9.46,17.24,19.78
21.6455819606781,2.34,-0.64,29.22,29.32
21.663513898849487,2.61,3.89,7.09,8.49
21.664958000183105,-3.94,7.97,-20.37,22.22
21.680250883102417,-1.32,-0.17,-14.41,14.47
21.68174910545349,1.16,-0.71,1.36,1.92
21.696027040481567,-0.51,2.86,-0.02,2.9
21.714327096939087,-2.1,1.92,-0.03,2.84
21.715837001800537,0.28,-3.88,1.28,4.09
21.728471040725708,1.56,-0.16,-1.56,2.21
21.729768991470337,0.54,3.51,-6.87,7.73
21.744909048080444,0.61,-0.32,0.99,1.2
21.763020038604736,0.86,-0.02,7.84,7.88
21.764487981796265,-0.44,-0.35,2.19,2.26
21.777302026748657,-1.06,3.48,-9.5,10.17
21.77850103378296,-0.63,5.04,-12.15,13.16
21.794070959091187,0.18,0.6,-2.91,2.97
21.811710119247437,0.72,-0.42,2.97,3.08
21.813250064849854,-0.06,-2.49,1.76,3.04
21.827934980392456,-0.65,-0.45,-3.72,3.8
21.82915997505188,-0.45,-1.61,-5.22,5.48
21.84494400024414,0.59,-1.67,2.03,2.69
21.862644910812378,1.66,2.41,8.79,9.26
21.864150047302246,1.57,6.33,10.44,12.3
21.87818217277527,2.01,2.62,7.37,8.07
21.879576921463013,0.26,-5.75,3.04,6.5
21.894646883010864,-0.77,-7.7,-1.14,7.82
21.912245988845825,-1.32,-7.85,-4.11,8.95
21.91373896598816,-2.17,-6.01,-4.62,7.88
21.927944898605347,-1.85,-1.13,-5.1,5.54
21.92915415763855,-1.17,-1.03,-4.07,4.35
21.94448494911194,-0.68,0.96,1.96,2.28
21.9623920917511,-1.26,8.53,2.01,8.85
21.963882207870483,0.47,10.03,0.49,10.05
21.97716498374939,2.37,8.02,3.44,9.04
21.978370904922485,4.57,5.62,1.81,7.46
21.993573904037476,4.82,-5.34,1.06,7.27
22.011219024658203,5.39,-8.2,0.39,9.82
22.01275086402893,2.69,1.38,-9.95,10.39
22.027722120285034,-1.71,2.25,-16.5,16.74
22.02897810935974,0.69,-6.69,-0.86,6.78
22.043646097183228,-0.27,-6.61,8.47,10.74
22.06141495704651,-1.26,0.01,12.56,12.62
22.062920093536377,-0.84,8.01,3.34,8.71
22.07804799079895,-0.14,8.94,-9.18,12.81
22.07936692237854,0.89,-3.68,-6.56,7.57
22.09463405609131,0.59,-5.46,1.3,5.64
22.11251187324524,1.75,-5.66,2.23,6.33
22.113934993743896,0.84,-0.83,-1.0,1.54
22.12750005722046,0.55,1.21,3.9,4.12
22.128772974014282,0.08,-1.16,5.76,5.87
22.144099950790405,-1.05,-0.63,2.49,2.77
22.16214609146118,-2.45,1.75,-4.43,5.35
22.16363501548767,-2.9,-1.8,-6.25,7.12
22.177636861801147,-1.36,-4.25,0.69,4.51
22.178888082504272,0.11,2.05,1.99,2.85
22.19454002380371,1.37,7.76,-6.69,10.33
22.212656021118164,2.03,6.59,-9.36,11.62
22.214214086532593,1.34,-2.37,-0.42,2.75
22.227429151535034,1.95,-5.54,7.44,9.47
22.228735208511353,0.77,1.03,6.53,6.65
22.24394702911377,-0.71,8.46,-6.27,10.55
22.261729955673218,-1.99,2.72,-9.1,9.7
22.26319193840027,-0.96,-3.78,2.99,4.91
22.27806305885315,-0.58,-0.94,8.08,8.15
22.27937388420105,0.64,5.77,3.45,6.75
22.294223070144653,2.35,5.85,-3.23,7.08
22.312108039855957,1.01,2.38,-7.85,8.26
22.31359601020813,0.59,-0.95,-8.53,8.6
22.327922105789185,0.07,-4.48,-5.38,7.0
22.32912302017212,0.1,-5.7,1.32,5.85
22.344317197799683,0.24,-0.28,9.2,9.2
22.36248517036438,-0.14,4.87,9.97,11.09
22.363900899887085,-2.12,5.48,-0.98,5.95
22.37734818458557,-2.11,-1.72,-4.71,5.44
22.37861204147339,-0.18,-2.35,2.17,3.2
22.394665956497192,1.0,0.0,-0.49,1.11
22.412569046020508,0.49,0.0,-7.76,7.77
22.41411304473877,0.54,0.87,-8.54,8.6
22.427309036254883,0.79,-5.21,-1.92,5.6
22.428590059280396,1.67,-5.82,6.42,8.82
22.444500207901,1.99,1.79,9.11,9.49
22.462342977523804,1.4,8.85,2.34,9.26
22.4638831615448,1.16,3.92,-3.07,5.11
22.477663040161133,0.3,-0.89,-4.0,4.1
22.478976011276245,2.29,-0.48,-4.78,5.32
22.495092153549194,2.41,-2.04,-2.4,3.96
22.513113021850586,2.28,-2.71,6.03,6.99
22.514556169509888,-0.54,-1.01,7.6,7.68
22.52866816520691,-2.52,3.23,-2.16,4.63
22.529876947402954,-2.26,0.37,-9.05,9.33
22.54410409927368,1.06,0.52,-4.39,4.54
22.562198877334595,2.65,1.76,-1.25,3.41
22.563656091690063,1.69,-0.13,3.71,4.07
22.57843804359436,-0.85,-0.36,5.5,5.57
22.579724073410034,-2.5,5.51,3.08,6.78
22.595077991485596,-1.66,10.0,-5.88,11.71
22.613950967788696,-0.15,1.4,-8.82,8.93
22.61542820930481,-0.2,-7.65,-0.9,7.7
22.62741494178772,0.33,-9.18,3.34,9.77
22.628724098205566,-0.25,-4.38,6.86,8.14
22.6446270942688,-0.87,3.21,1.28,3.56
22.66281294822693,-0.65,16.21,-8.6,18.36
22.66429114341736,2.72,2.59,-7.63,8.5
22.678921937942505,0.68,-8.65,2.97,9.17
22.680094003677368,2.3,-8.0,8.52,11.91
22.693626165390015,1.94,-1.93,5.97,6.56
22.712175130844116,-0.89,1.22,-0.92,1.76
22.71366810798645,-0.87,1.31,-3.42,3.76
22.728123903274536,0.91,-0.76,-5.57,5.69
22.72931694984436,0.18,3.35,-9.2,9.79
22.74351406097412,-0.45,-0.62,-7.62,7.65
22.761980056762695,-0.46,-3.89,2.48,4.63
22.76341199874878,0.76,-6.02,9.6,11.35
22.778096914291382,0.02,0.94,11.81,11.84
22.779311895370483,-1.17,12.66,-3.07,13.07
22.79355502128601,1.04,8.16,-14.93,17.04
22.8118679523468,0.56,-5.43,1.8,5.74
22.813338041305542,1.15,-5.31,11.17,12.42
22.827840089797974,0.24,4.12,3.17,5.2
22.82906413078308,0.36,7.56,-10.76,13.15
22.84435200691223,-0.81,-1.19,-4.71,4.92
22.862568140029907,-0.78,-1.97,0.49,2.17
22.8640558719635,-0.7,3.55,-7.63,8.44
22.87742590904236,-1.45,-0.88,-3.92,4.27
22.878706216812134,0.04,-3.6,10.13,10.75
22.89403510093689,0.17,-2.75,15.8,16.03
22.912548065185547,-0.57,2.17,2.51,3.36
22.914040088653564,-0.48,5.7,-17.27,18.19
22.92768120765686,0.06,0.4,-6.8,6.81
22.928868055343628,-0.3,-1.79,2.29,2.92
22.9441020488739,-0.79,-3.87,4.28,5.82
22.962487936019897,0.15,-3.95,7.18,8.19
22.963967084884644,-0.21,2.81,2.7,3.9
22.978720903396606,-0.97,5.7,-7.71,9.63
22.979942083358765,-1.31,-0.01,-3.94,4.15
22.99539017677307,-1.59,-0.37,2.03,2.6
23.013557195663452,-2.11,-0.82,0.61,2.34
23.015010118484497,-0.82,-0.74,-0.39,1.17
23.027887105941772,0.73,-1.78,-1.13,2.23
23.029026985168457,0.59,-1.78,-1.47,2.38
23.044595956802368,0.42,0.83,-2.07,2.26
23.06287693977356,-0.72,3.71,1.97,4.26
23.064352989196777,-1.41,5.12,6.77,8.6
23.077401876449585,-0.62,0.69,5.87,5.94
23.07869601249695,-0.2,1.72,-5.11,5.39
23.093189001083374,-0.3,2.58,-14.78,15.0
23.111733198165894,-0.73,-4.04,-5.28,6.68
23.113229990005493,-0.31,-5.47,2.86,6.18
23.128443002700806,-0.4,0.17,5.38,5.39
23.12966299057007,0.28,2.14,4.07,4.6
23.144764184951782,-0.08,-3.23,1.06,3.4
23.162867069244385,0.22,-0.9,-0.11,0.93
23.164331197738647,-0.56,7.66,-4.1,8.7
23.17882204055786,-2.24,5.71,-1.38,6.28
23.179381132125854,-1.9,0.62,4.69,5.09
23.180615186691284,-1.2,-2.47,-1.16,2.98
23.199354887008667,-0.41,-5.98,-8.5,10.4
23.200731992721558,0.16,-5.52,-1.86,5.82
23.212228059768677,0.19,0.32,0.6,0.7
23.213462114334106,-2.17,8.01,4.06,9.23
23.228769063949585,-1.34,5.11,5.2,7.41
23.24819016456604,-1.94,-3.22,2.88,4.73
23.24969792366028,-2.73,-1.85,-3.27,4.64
23.262052059173584,-2.92,0.9,-7.99,8.55
23.26329803466797,-3.15,0.19,-3.08,4.4
23.278959035873413,-1.77,-0.55,5.18,5.5
23.298113107681274,-0.13,0.9,5.77,5.84
23.2996609210968,1.37,0.69,1.12,1.89
23.31216788291931,2.66,3.83,-7.99,9.25
23.313369035720825,1.37,-0.76,-2.53,2.97
23.32732892036438,0.0,1.47,4.1,4.35
23.34556007385254,-1.47,2.76,1.28,3.37
23.34703516960144,-1.42,-2.33,-2.7,3.83
23.36147904396057,-0.14,-5.08,-2.17,5.52
23.36267590522766,0.03,-2.96,-0.6,3.02
23.378474950790405,-0.63,2.64,1.18,2.95
23.39675998687744,-1.14,4.13,1.45,4.52
23.398235082626343,-0.78,1.54,-2.28,2.85
23.411834001541138,-0.29,-1.62,-1.96,2.55
23.41314721107483,-0.43,-1.36,2.94,3.26
23.42874503135681,-0.53,0.22,4.55,4.58
23.447010040283203,-0.51,0.5,1.32,1.5
23.448472023010254,-0.47,-2.31,0.14,2.36
23.461127996444702,0.17,-0.78,-0.26,0.83
23.462517023086548,0.68,2.56,-4.61,5.31
23.4779269695282,0.84,2.49,-0.99,2.8
23.49625515937805,0.26,-1.41,2.79,3.13
23.497775077819824,-0.64,-2.61,0.17,2.69
23.511430978775024,-0.94,0.77,-3.29,3.5
23.51271414756775,-0.26,-0.29,-3.12,3.14
23.52963614463806,1.0,-1.42,4.82,5.12
23.54834008216858,1.27,0.32,7.0,7.12
23.549869060516357,-0.39,0.98,5.34,5.44
23.561676025390625,-0.99,7.76,-3.21,8.45
23.562841176986694,0.38,7.53,-16.56,18.19
23.577740907669067,0.81,-5.02,-6.4,8.17
23.596044063568115,0.5,-8.39,1.39,8.51
23.597514867782593,-1.29,-6.66,1.82,7.02
23.61144709587097,-1.12,-1.59,7.79,8.02
23.61262607574463,-1.56,6.01,6.22,8.78
23.628725051879883,-0.22,9.94,-8.69,13.2
23.647074937820435,1.27,-0.91,-8.97,9.1
23.6485378742218,0.85,-6.98,3.9,8.04
23.662829160690308,2.42,-7.92,12.09,14.65
23.663985013961792,2.02,-0.92,18.05,18.18
23.678433179855347,1.34,8.47,5.45,10.16
23.696649074554443,-1.19,15.18,-10.99,18.77
23.698167085647583,-1.69,4.06,-20.57,21.03
23.711868047714233,0.83,-4.7,-5.69,7.42
23.713088989257812,0.24,-4.97,4.27,6.55
23.728572130203247,3.63,-5.89,9.79,11.98
23.74674391746521,5.28,1.14,14.91,15.85
23.748223066329956,4.76,7.67,-1.44,9.14
23.761873960494995,-0.48,11.93,-20.2,23.46
23.76308798789978,0.15,-0.67,-12.02,12.03
23.777883052825928,0.12,-5.02,2.24,5.49
23.796236038208008,0.18,-5.94,12.51,13.84
23.79772114753723,3.28,-0.59,21.88,22.13
23.811408042907715,0.26,7.3,5.77,9.3
23.81268286705017,-1.46,6.37,-18.76,19.86
23.82783603668213,-1.21,-5.58,-15.12,16.16
23.846328020095825,0.22,-4.42,-0.04,4.42
23.84781503677368,0.52,-7.8,-0.09,7.81
23.86146903038025,2.24,-5.58,-5.21,7.95
23.86266589164734,2.61,0.73,1.05,2.9
23.8785400390625,2.24,2.5,2.35,4.09
23.896878957748413,2.17,-2.43,-1.28,3.5
23.89830994606018,1.36,0.42,-4.07,4.31
23.911175966262817,1.6,4.09,-2.57,5.08
23.912462949752808,0.35,7.78,1.12,7.86
23.928826093673706,0.6,7.36,5.13,8.99
23.94704508781433,1.57,-0.92,6.05,6.31
23.948642015457153,2.37,-6.53,3.05,7.58
23.961097955703735,3.19,-9.54,1.99,10.25
23.962525129318237,2.59,-9.91,-1.81,10.4
23.977699995040894,-1.61,-5.84,-7.36,9.53
23.99613308906555,-1.31,0.79,-7.98,8.12
23.997565984725952,-1.52,3.87,-1.42,4.39
24.012531042099,-1.77,1.44,6.36,6.75
24.01373600959778,1.41,4.17,10.9,11.75
24.027601957321167,7.17,1.43,8.59,11.28
24.046248197555542,8.12,-5.31,-1.33,9.79
24.04770302772522,2.73,-3.38,-7.13,8.34
24.06178593635559,-0.14,1.15,-9.3,9.37
24.06298518180847,-2.31,4.54,-7.29,8.89
24.07771897315979,-1.41,0.28,0.07,1.43
24.096349954605103,1.15,0.59,9.59,9.67
24.097846031188965,4.75,1.3,7.67,9.11
24.111582040786743,4.27,3.35,-5.86,7.98
24.112787008285522,3.04,-2.72,-5.97,7.23
24.128432989120483,2.24,-7.11,6.27,9.74
24.146522045135498,0.65,-0.26,6.61,6.64
24.14803409576416,-0.12,8.37,-6.89,10.84
24.161382913589478,0.5,2.35,-11.43,11.67
24.162612199783325,2.02,-6.51,4.56,8.2
24.177751064300537,2.69,-4.6,10.82,12.06
24.196022987365723,1.24,4.22,0.16,4.4
24.197431087493896,-0.49,3.8,-10.94,11.59
24.21145796775818,-0.08,-3.85,-2.95,4.85
24.212862014770508,0.76,-3.96,2.26,4.62
24.22826099395752,0.45,-1.66,-1.1,2.04
24.246633052825928,2.24,5.42,-4.03,7.11
24.24811100959778,3.56,3.81,1.4,5.39
24.26166605949402,4.5,-0.55,7.36,8.64
24.262863874435425,2.24,0.69,4.27,4.87
24.277773141860962,-0.11,2.38,-5.56,6.04
24.296282052993774,-0.51,3.26,-8.04,8.69
24.29769206047058,0.07,4.52,-7.36,8.63
24.31212306022644,1.27,-3.29,-3.93,5.28
24.313360929489136,2.06,-7.44,1.49,7.86
24.328614950180054,1.87,-6.51,5.08,8.46
24.34671401977539,0.32,2.36,-1.82,2.99
24.34819507598877,-0.29,10.87,-10.92,15.41
24.362341165542603,1.37,-1.36,0.16,1.93
24.363535165786743,1.91,-8.73,13.74,16.39
24.378534078598022,0.54,-1.23,15.76,15.81
24.396808862686157,-0.58,4.22,3.04,5.23
24.398312091827393,-2.91,5.29,-9.49,11.24
24.412402868270874,-0.81,-2.57,-7.27,7.75
24.413681983947754,0.32,-6.5,-1.58,6.69
24.42833709716797,1.33,-2.91,-5.76,6.58
24.446840047836304,1.54,-2.38,-6.24,6.85
24.44835114479065,1.5,-0.4,3.5,3.82
24.462977170944214,0.17,2.67,4.85,5.53
24.464192152023315,-0.25,1.15,6.74,6.84
24.480539083480835,-0.9,-1.09,8.05,8.17
24.499046087265015,-0.31,0.28,0.32,0.52
24.500487089157104,-0.3,6.78,-13.66,15.25
24.513554096221924,-0.58,3.27,-10.32,10.84
24.514838933944702,-1.24,-1.03,2.04,2.6
24.53057599067688,-1.22,-0.28,6.31,6.43
24.548893213272095,0.42,-2.11,5.89,6.27
24.55029606819153,0.71,-2.86,-4.61,5.47
24.563151121139526,1.17,1.54,-11.32,11.48
24.564343214035034,-0.34,3.09,-8.99,9.51
24.577905893325806,-1.05,-2.75,-0.31,2.95
24.596373081207275,-1.41,-4.85,9.64,10.88
24.59789204597473,-1.17,0.51,12.75,12.81
24.613126039505005,-1.72,12.79,-5.15,13.89
24.614336013793945,0.41,13.61,-19.18,23.52
24.629487991333008,0.06,0.21,0.92,0.94
24.647897005081177,0.68,-9.12,11.77,14.9
24.6494140625,0.28,-8.99,12.59,15.47
24.66314721107483,1.89,-3.22,-0.57,3.77
24.664319038391113,-1.8,1.15,-12.02,12.2
24.678773164749146,-0.35,1.77,-0.91,2.02
24.69663405418396,1.24,3.88,-5.06,6.49
24.69816517829895,-1.53,8.16,-9.13,12.34
24.713361978530884,-0.83,-1.34,0.47,1.64
24.71455407142639,0.13,-6.69,7.05,9.71
24.72813105583191,0.45,-4.14,8.68,9.62
24.746288061141968,-0.08,5.22,-0.41,5.23
24.747750997543335,0.48,8.19,-13.16,15.5
24.762795209884644,-0.4,-1.81,-2.31,2.96
24.763997077941895,0.28,-3.19,7.65,8.29
24.77942705154419,0.35,-2.48,8.44,8.8
24.79752206802368,0.58,0.2,2.14,2.22
24.79903292655945,1.11,1.73,-7.75,8.01
24.813091039657593,0.2,-3.24,-3.68,4.9
24.814290046691895,-0.69,-0.1,2.92,3.0
24.82925295829773,-1.52,4.1,1.66,4.67
24.84724998474121,-1.84,-2.01,2.17,3.48
24.8487389087677,-1.09,-5.14,2.15,5.67
24.86369490623474,-0.41,1.51,-4.76,5.01
24.86486005783081,-0.44,-0.22,-4.08,4.1
24.879839181900024,-0.13,0.62,6.32,6.35
24.897845029830933,-0.83,5.93,6.8,9.06
24.899335145950317,0.77,3.79,-1.58,4.17
24.914036989212036,1.26,-2.76,-7.23,7.84
24.915201902389526,0.49,-7.07,-0.6,7.11
24.92985200881958,1.15,-6.14,1.43,6.4
24.947988033294678,1.62,0.91,-5.21,5.53
24.949494123458862,0.94,8.35,-7.82,11.47
24.96359610557556,1.91,3.79,-1.36,4.45
24.964792013168335,1.59,-5.99,6.14,8.72
24.9804470539093,1.34,-6.43,10.33,12.24
24.998406171798706,0.71,2.06,3.6,4.2
24.999920129776,-0.72,8.2,-8.95,12.15
25.013588190078735,-0.16,1.47,-2.76,3.13
25.014832019805908,-0.16,0.57,5.2,5.23
25.029829025268555,-1.39,-0.91,-2.07,2.65
25.048018217086792,-1.42,0.11,-10.31,10.4
25.04955005645752,-0.42,-4.04,-1.83,4.45
25.06402611732483,-0.56,-1.84,4.79,5.16
25.065222024917603,-0.13,3.53,4.13,5.43
25.08009696006775,0.27,2.16,4.25,4.77
25.098433017730713,0.53,3.12,6.38,7.12
25.100011110305786,0.93,6.76,-5.04,8.48
25.114683866500854,1.21,1.24,-14.62,14.72
25.11587905883789,1.05,-5.45,-2.01,5.9
25.131152868270874,1.5,-7.95,4.98,9.5
25.149603128433228,1.31,-3.43,3.77,5.26
25.151125192642212,0.26,4.17,-6.46,7.69
25.16443419456482,1.09,3.72,-2.89,4.83
25.165638208389282,1.92,-6.03,7.29,9.65
25.181396007537842,0.74,-6.21,9.98,11.77
25.199896097183228,0.07,2.31,0.22,2.32
25.201418161392212,-0.02,13.26,-16.17,20.91
25.21442198753357,0.63,7.05,-11.15,13.2
25.215622186660767,0.82,-4.29,4.29,6.12
25.2311429977417,1.0,-8.96,8.48,12.37
25.24961495399475,-0.54,-4.44,6.1,7.56
25.25112795829773,-1.29,1.89,-0.41,2.32
25.26460909843445,-1.69,5.0,-0.93,5.35
25.26580786705017,-1.07,-3.79,-1.83,4.34
25.281173944473267,-0.95,-3.84,0.2,3.96
25.299915075302124,0.6,1.22,3.04,3.33
25.301339864730835,0.3,4.08,1.22,4.26
25.31512999534607,2.4,0.37,1.54,2.87
25.316293954849243,3.57,-2.31,2.24,4.8
25.33122205734253,2.92,-0.92,-9.89,10.35
25.34968113899231,-0.02,-5.63,-9.32,10.88
25.351174116134644,0.29,-6.42,1.55,6.61
25.364111185073853,-0.74,0.28,1.09,1.34
25.365303993225098,-2.58,3.38,-0.35,4.26
25.38061499595642,-2.21,-4.76,1.23,5.39
25.3990261554718,-2.72,-3.23,3.5,5.48
25.400476217269897,-3.97,6.62,3.46,8.45
25.41484808921814,-4.57,12.11,3.08,13.3
25.416167974472046,-2.77,4.78,1.27,5.66
25.430801153182983,-3.86,-3.17,-5.88,7.71
25.449259996414185,-3.9,-2.99,-8.86,10.13
25.45077395439148,-1.63,-4.16,-3.56,5.71
25.463685035705566,0.34,-1.96,0.81,2.14
25.46486496925354,2.23,5.18,9.79,11.29
25.481319189071655,4.49,5.36,9.39,11.7
25.499752044677734,3.2,-2.56,-1.92,4.52
25.50126600265503,1.12,-3.69,-4.13,5.65
25.514281034469604,-0.1,3.1,-2.54,4.0
25.515475034713745,-1.79,3.9,-2.82,5.13
25.530462980270386,-1.16,-1.97,5.92,6.34
25.549000024795532,-0.47,-2.16,11.11,11.32
25.550527095794678,-0.04,5.29,-0.65,5.32
25.564120054244995,0.93,1.44,-15.77,15.86
25.56530213356018,1.74,-4.57,-4.04,6.34
25.58069396018982,1.14,-6.23,-1.62,6.53
25.599173069000244,0.03,-6.9,-3.83,7.89
25.600674867630005,-0.03,-3.57,1.71,3.95
25.614259958267212,-1.01,4.65,2.65,5.44
25.615426063537598,-1.01,11.77,0.1,11.81
25.63350796699524,0.82,2.8,-0.66,2.99
25.652004957199097,0.49,-7.79,4.54,9.02
25.653506994247437,0.32,-7.62,5.84,9.6
25.664056062698364,-0.04,-1.68,-2.83,3.29
25.665240049362183,-3.45,7.57,-6.37,10.47
25.68033504486084,-2.47,7.53,0.53,7.94
25.699054956436157,-1.11,3.7,3.41,5.15
25.700568914413452,-1.57,-3.71,-2.19,4.58
25.713928937911987,-1.33,-6.76,-0.73,6.92
25.715101957321167,0.07,-0.11,3.77,3.77
25.729964017868042,0.16,3.22,4.27,5.35
25.74848508834839,2.33,3.42,-0.33,4.15
25.75000500679016,2.66,-0.77,-4.76,5.5
25.764260053634644,2.0,-4.73,0.14,5.13
25.765424013137817,1.76,-2.75,5.79,6.64
25.780522108078003,0.62,3.06,1.58,3.49
25.798866033554077,-0.2,-0.64,-7.26,7.29
25.800384998321533,0.43,-6.77,-2.07,7.09
25.81432604789734,0.48,-2.97,-0.94,3.15
25.81550908088684,0.11,3.95,-5.04,6.4
25.830468893051147,-0.16,4.33,3.29,5.44
25.848829984664917,-0.27,-1.04,8.85,8.91
25.850396871566772,-1.54,-1.11,4.96,5.31
25.86394715309143,-0.71,6.71,-10.8,12.73
25.865174055099487,-1.55,7.19,-17.19,18.69
25.8807270526886,-0.63,-3.83,-0.74,3.95
25.89909291267395,0.15,-8.48,10.26,13.31
25.900570154190063,-1.0,-3.92,10.26,11.02
25.91388702392578,-1.53,1.06,-1.32,2.28
25.915077924728394,-2.09,2.45,-3.8,4.98
25.931559085845947,-0.11,1.69,2.93,3.38
25.950059175491333,0.17,4.4,0.6,4.44
25.951625108718872,2.27,-0.79,-1.88,3.05
25.964411973953247,1.59,-5.0,1.58,5.47
25.965643167495728,0.42,-1.43,-2.61,3.0
25.98096489906311,-0.44,4.17,-7.93,8.97
25.999491930007935,0.94,1.85,-0.44,2.12
26.000974893569946,2.69,-2.4,9.4,10.06
26.01439905166626,1.6,-3.47,8.96,9.74
26.015635013580322,0.36,3.28,-5.01,5.99
26.030292987823486,-0.11,1.97,-12.82,12.97
26.048696041107178,1.03,-6.32,0.27,6.4
26.050276041030884,2.58,-3.96,8.36,9.6
26.064246892929077,1.28,3.9,7.09,8.19
26.06542420387268,-0.74,6.28,-1.47,6.49
26.080185174942017,-1.0,-2.43,-4.52,5.22
26.098893880844116,-0.34,-6.58,-1.65,6.79
26.100353956222534,0.01,-2.83,-4.55,5.35
26.115070104599,0.78,2.19,-6.66,7.05
26.116273164749146,1.36,2.01,3.44,4.2
26.130555868148804,0.72,2.15,5.76,6.19
26.149009943008423,-1.4,2.3,3.86,4.7
26.15043807029724,-2.26,0.8,-1.44,2.79
26.164619207382202,0.57,-0.91,-5.59,5.69
26.165777921676636,1.66,-4.07,0.26,4.4
26.18096399307251,2.65,-2.52,9.07,9.77
26.199416875839233,0.03,2.82,8.54,8.99
26.200911045074463,-1.71,6.49,-4.99,8.36
26.214553117752075,-0.12,0.71,-8.9,8.92
26.21572518348694,1.95,-0.63,-4.12,4.6
26.230106115341187,3.2,0.38,-10.35,10.84
26.248630046844482,2.34,-5.64,0.07,6.1
26.25013303756714,2.45,-7.0,11.67,13.82
26.265082120895386,-0.66,2.63,8.32,8.75
26.266282081604004,-2.02,14.71,-9.23,17.48
26.281564950942993,-1.28,5.35,-10.6,11.94
26.300050020217896,1.21,-9.07,7.26,11.68
26.30162215232849,1.22,-8.82,11.7,14.7
26.315054178237915,0.52,-2.15,-3.74,4.34
26.316231966018677,-2.27,6.51,-13.57,15.22
26.330703020095825,-0.52,-0.07,-0.6,0.79
26.349241971969604,2.14,-5.09,6.23,8.32
26.35076403617859,0.6,0.25,5.88,5.91
26.36487603187561,-0.71,0.37,-0.49,0.93
26.366059064865112,-0.48,-4.08,-0.58,4.14
26.381008863449097,-0.16,1.18,2.25,2.54
26.399435997009277,0.23,8.23,-2.97,8.75
26.4009530544281,1.16,3.9,-3.33,5.25
26.4149911403656,-0.3,-5.08,0.34,5.1
26.416200876235962,-1.6,-7.55,1.05,7.78
26.430994987487793,-2.13,-4.41,2.9,5.69
26.449483156204224,-0.68,-0.63,2.61,2.76
26.451004028320312,-0.49,4.87,-0.59,4.93
26.46425199508667,0.81,9.16,-6.13,11.05
26.465437173843384,1.26,-1.5,-1.58,2.51
26.48086905479431,1.37,-7.88,4.85,9.35
26.49920392036438,2.07,-4.09,5.1,6.85
26.500797033309937,-0.7,5.1,-4.85,7.07
26.5148708820343,-2.34,4.83,-7.52,9.23
26.516066074371338,0.01,-5.45,3.47,6.46
26.530724048614502,0.37,-3.02,5.24,6.05
26.54918909072876,-0.62,4.01,-7.79,8.78
26.55071187019348,-0.9,3.09,-10.33,10.81
26.564754009246826,0.34,-3.7,2.89,4.7
26.56592106819153,0.65,-4.71,8.21,9.48
26.58126997947693,-0.58,2.97,7.55,8.13
26.599889993667603,-1.41,10.63,-4.16,11.5
26.601423978805542,-1.47,1.37,-7.11,7.38
26.61749291419983,-0.36,-5.99,4.01,7.21
26.618695974349976,-0.06,-2.79,5.52,6.18
26.63145899772644,-1.33,1.4,-4.93,5.29
26.649984121322632,-2.26,1.6,-6.35,6.92
26.651454210281372,-0.9,-1.04,2.44,2.8
26.664395093917847,0.36,-0.03,4.53,4.54
26.66561007499695,0.74,-2.35,1.84,3.07
26.681412935256958,0.1,1.18,-4.52,4.67
26.69992709159851,-0.78,1.02,-4.81,4.97
26.70155119895935,-0.53,-0.34,3.5,3.55
26.71473503112793,0.37,-0.22,6.64,6.65
26.715954065322876,-0.91,0.45,-0.37,1.08
26.730576992034912,-2.09,-2.94,-2.31,4.28
26.748889207839966,-0.89,-1.69,3.16,3.69
26.750499963760376,-0.91,2.48,0.48,2.68
26.765722036361694,-1.47,0.27,-5.22,5.42
26.766939878463745,-0.24,-4.59,1.86,4.95
26.78096103668213,-0.15,1.43,2.86,3.2
26.799442052841187,-0.26,5.48,-3.21,6.35
26.80103898048401,-0.4,-1.07,3.0,3.21
26.814887046813965,0.2,1.36,2.78,3.1
26.816057920455933,-1.15,0.32,-11.38,11.44
26.831196069717407,-0.69,-6.71,-1.84,6.99
26.849572896957397,-0.28,-4.25,8.64,9.63
26.851150035858154,-1.48,5.77,6.28,8.65
26.864997148513794,-0.96,9.59,-4.51,10.64
26.86618399620056,-0.27,-0.61,-3.78,3.83
26.88142418861389,-0.02,-6.3,4.7,7.86
26.899912118911743,-0.48,-2.46,7.47,7.87
26.90147089958191,-1.21,4.9,-1.98,5.42
26.915040016174316,-1.24,4.81,-10.01,11.17
26.91621994972229,-0.06,-3.3,-1.0,3.44
26.931392908096313,-0.53,-4.92,0.83,5.01
26.94998002052307,-0.24,0.88,-1.16,1.47
26.95153021812439,0.42,4.3,-4.64,6.34
26.96489691734314,0.63,-4.72,-0.73,4.81
26.966065168380737,0.07,-7.55,5.24,9.19
26.98125195503235,-0.29,-0.54,5.35,5.38
26.999741077423096,-1.2,9.31,-1.27,9.47
27.001269102096558,-0.5,3.06,-2.49,3.97
27.0146381855011,0.03,-5.39,4.1,6.77
27.015764951705933,-0.86,-5.3,2.35,5.86
27.03121590614319,-2.09,1.26,-6.75,7.17
27.049721002578735,-1.99,3.89,-6.92,8.18
27.051267862319946,-0.66,-1.1,5.34,5.49
27.06467604637146,-0.07,-3.29,10.9,11.38
27.065858125686646,0.07,0.84,0.37,0.92
27.080848932266235,0.03,3.0,-12.97,13.31
27.09934902191162,0.32,-3.11,0.53,3.17
27.100847959518433,0.78,3.0,7.13,7.77
27.11543917655945,1.19,2.94,1.7,3.59
27.1166250705719,-0.03,-4.91,-0.77,4.97
27.131179094314575,0.67,-1.4,-1.49,2.15
27.149492979049683,-1.11,4.16,-12.54,13.25
27.15100908279419,-0.84,-3.96,-4.42,5.99
27.164680004119873,1.05,-7.97,12.43,14.8
27.165834188461304,1.79,-4.72,17.56,18.27
27.18176817893982,1.68,6.83,0.39,7.04
27.200237035751343,-1.38,17.61,-23.99,29.79
27.201747179031372,-1.05,1.79,-12.0,12.17
27.214592218399048,0.95,-9.68,7.28,12.14
27.215818166732788,-0.31,-8.49,17.47,19.42
27.23089098930359,1.26,-1.91,9.55,9.82
27.249315977096558,1.02,3.03,-11.52,11.95
27.250820875167847,-1.82,5.85,-13.51,14.83
27.265772104263306,2.41,-7.52,-0.56,7.91
27.266969919204712,1.82,-4.54,3.35,5.92
27.281620025634766,-0.77,6.07,1.11,6.21
27.299997091293335,-0.57,6.94,-0.01,6.96
27.301512956619263,-0.22,-2.68,6.04,6.61
27.31490206718445,-1.26,-1.1,8.39,8.55
27.316070079803467,-0.3,7.33,-4.55,8.63
27.33137011528015,-0.69,6.31,-20.35,21.31
27.349701166152954,-0.26,-5.72,-3.31,6.61
27.351240873336792,0.89,-9.76,11.1,14.8
27.365164041519165,0.27,-6.86,18.04,19.3
27.366343021392822,0.13,1.19,7.05,7.15
27.381335020065308,-2.23,14.06,-14.17,20.08
27.399906873703003,-0.95,8.66,-16.66,18.8
27.401386976242065,1.48,-8.77,-2.09,9.13
27.415807008743286,0.04,-6.11,0.53,6.13
27.417015075683594,0.73,0.18,-1.18,1.39
27.431694984436035,0.1,2.04,4.94,5.34
27.45024609565735,-1.12,1.92,9.43,9.68
27.451719045639038,-1.58,0.89,6.58,6.82
27.46482491493225,0.63,5.52,-10.99,12.31
27.46598792076111,1.38,2.63,-15.56,15.84
27.481296062469482,0.83,-6.87,1.38,7.05
27.49957013130188,2.01,-8.4,8.89,12.39
27.501105070114136,1.4,-3.65,6.21,7.33
27.51590895652771,0.94,0.2,0.21,0.98
27.51732301712036,-1.2,7.42,-0.43,7.52
27.532097101211548,1.19,0.91,-1.51,2.12
27.550248861312866,-0.73,-6.48,-1.03,6.6
27.551759958267212,-0.83,-2.99,-2.92,4.26
27.56513810157776,0.24,6.66,-6.89,9.58
27.566256999969482,0.64,3.92,-0.59,4.01
27.58106303215027,3.71,-8.02,14.5,16.98
27.600187063217163,0.87,-10.29,17.86,20.63
27.601646184921265,-1.48,-2.2,0.37,2.67
27.615265130996704,-3.24,9.68,-16.55,19.44
27.616503953933716,-1.79,4.65,-12.72,13.66
27.63108801841736,1.39,-6.12,0.78,6.32
27.649408102035522,1.69,-1.7,5.76,6.23
27.650893926620483,1.77,-1.84,4.92,5.54
27.664956092834473,0.59,-0.67,4.18,4.27
27.66614603996277,1.1,4.35,-5.83,7.35
27.681432962417603,1.61,3.61,-13.14,13.72
27.699627161026,1.1,-6.09,0.38,6.2
27.70113205909729,2.59,-6.4,8.55,10.98
27.714539051055908,0.59,2.54,4.25,4.98
27.715840101242065,0.41,12.58,-3.63,13.09
27.730805158615112,2.46,1.87,2.35,3.88
27.749035120010376,1.55,-4.3,3.75,5.91
27.750550985336304,0.86,1.07,-7.19,7.31
27.76454520225525,1.13,-4.04,-9.68,10.54
27.76576590538025,0.62,-6.0,1.46,6.2
27.78188705444336,0.9,-0.23,5.77,5.84
27.800212144851685,0.3,5.16,6.22,8.08
27.80162000656128,-0.54,-0.23,2.28,2.35
27.815335988998413,0.24,-4.44,1.8,4.79
27.81652307510376,0.32,2.39,-1.5,2.83
27.83094620704651,-0.66,0.26,-11.08,11.1
27.849085092544556,0.79,-7.12,-1.18,7.26
27.85059404373169,0.96,-4.48,7.89,9.12
27.865123987197876,-1.1,5.05,6.48,8.28
27.866309881210327,0.27,3.72,0.7,3.79
27.882034063339233,0.55,-4.71,2.57,5.39
27.900437116622925,-0.21,2.12,-1.04,2.37
27.901882886886597,-0.16,3.81,-7.46,8.37
27.915608167648315,0.43,-3.97,-0.22,3.99
27.916773080825806,1.03,-0.85,0.72,1.51
27.931501150131226,0.37,1.74,-3.24,3.69
27.949772119522095,0.02,-1.42,4.7,4.9
27.9512300491333,-0.14,1.3,4.7,4.87
27.96523404121399,0.25,-0.82,-5.36,5.42
27.96639895439148,0.08,-0.34,-8.18,8.18
27.98066020011902,0.66,-1.86,-1.9,2.73
27.999237060546875,0.96,-1.26,4.21,4.49
28.00073790550232,0.82,3.19,7.52,8.2
28.01545000076294,0.36,4.59,3.79,5.96
28.016646146774292,0.12,2.12,-3.57,4.15
28.031527996063232,-0.06,-4.27,-5.35,6.84
28.04973816871643,0.28,-4.66,-1.52,4.9
28.051267862319946,-0.92,2.72,-7.39,7.92
28.065376043319702,-0.53,-2.82,2.32,3.68
28.066599130630493,0.7,-0.62,18.26,18.28
28.08142900466919,-2.46,9.52,8.09,12.73
28.09975504875183,-1.17,6.19,-12.89,14.34
28.101343870162964,0.44,-4.48,-9.62,10.62
28.116069078445435,0.35,-6.04,1.08,6.14
28.117292165756226,0.17,-4.74,-1.38,4.93
28.13140320777893,-0.07,0.4,-2.83,2.85
28.149800062179565,-1.61,3.43,3.74,5.32
28.151335954666138,-1.24,2.99,5.51,6.39
28.165807962417603,-0.87,-0.87,-0.18,1.24
28.16700291633606,0.23,-5.46,-3.37,6.42
28.182141065597534,0.73,-4.7,2.96,5.6
28.200440168380737,-0.37,4.58,2.8,5.38
28.201987981796265,-0.39,6.91,-0.68,6.95
28.216487169265747,0.5,-0.89,0.0,1.02
28.217745065689087,-0.2,-4.45,-3.18,5.47
28.232577085494995,-0.42,-4.05,-5.79,7.07
28.251111030578613,-0.93,-0.73,-5.68,5.8
28.25264620780945,-0.28,0.47,2.27,2.33
28.26602005958557,-0.31,5.75,8.13,9.96
28.267210006713867,-0.85,4.21,5.21,6.75
28.28233504295349,0.04,-4.46,0.77,4.52
28.300843000411987,0.31,-5.89,-0.49,5.91
28.30236315727234,-0.87,-3.31,-0.43,3.44
28.31682300567627,-1.13,1.49,-2.27,2.94
28.317378044128418,-1.14,4.17,-2.38,4.93
28.318630933761597,-1.0,1.12,-1.62,2.2
28.33752417564392,-0.62,-1.89,1.38,2.42
28.3388888835907,0.38,-2.31,1.46,2.75
28.348644018173218,0.63,0.12,-1.11,1.28
28.349817037582397,-0.47,4.17,-5.64,7.02
28.365391969680786,-0.73,0.95,-3.33,3.53
28.38404107093811,-0.19,-3.15,5.62,6.44
28.385556936264038,-0.74,-0.79,8.63,8.69
28.39891791343689,-0.96,0.22,2.06,2.28
28.40011715888977,0.09,-1.69,-7.66,7.84
28.415178060531616,0.96,-1.85,-3.81,4.34
28.433824062347412,0.36,-0.48,-1.29,1.42
28.435317039489746,-1.58,3.38,2.8,4.66
28.448911905288696,-1.91,1.49,3.83,4.53
28.45010018348694,-1.69,-2.53,-1.11,3.23
28.464766025543213,1.06,-3.64,-1.31,4.01
28.483375072479248,1.0,5.24,-5.35,7.55
28.484895944595337,-0.25,1.76,-4.81,5.12
28.499011039733887,0.46,-6.78,6.29,9.25
28.500195026397705,0.01,-5.96,8.56,10.43
28.51627516746521,-1.4,1.87,0.66,2.42
28.518837213516235,-1.51,9.59,-8.76,13.07
28.535338163375854,-1.13,2.7,-0.94,3.07
28.536824941635132,0.71,-6.43,8.21,10.45
28.548959016799927,-0.05,-3.68,5.11,6.29
28.550137042999268,-0.17,0.67,-9.58,9.6
28.5690701007843,-0.68,-0.69,-7.75,7.81
28.570417165756226,0.17,-0.76,2.52,2.63
28.58480715751648,-0.04,0.3,3.19,3.2
28.586015939712524,-0.29,-3.03,3.0,4.27
28.598531007766724,0.3,-0.55,1.84,1.94
28.617231130599976,-0.05,2.06,-2.42,3.17
28.61874794960022,0.21,-0.19,-0.47,0.54
28.63228702545166,0.8,-1.41,0.41,1.67
28.63344693183899,-0.52,-0.1,-1.6,1.68
28.648386001586914,-1.26,4.21,3.48,5.6
28.667073011398315,-0.54,1.82,1.94,2.71
28.668575048446655,-0.56,-3.02,-8.86,9.37
28.683279991149902,0.0,-3.46,-5.93,6.86
28.68450093269348,0.1,-2.59,1.62,3.05
28.698976039886475,0.35,2.8,9.46,9.87
28.71733593940735,-1.62,5.51,9.77,11.33
28.718837022781372,-0.97,1.81,-5.96,6.3
28.732607126235962,0.58,0.1,-12.23,12.24
28.733815908432007,1.1,-3.03,-3.47,4.73
28.748409032821655,0.61,-4.12,1.38,4.38
28.766924142837524,-0.28,1.18,5.47,5.6
28.768450021743774,-0.03,0.43,2.27,2.31
28.782440900802612,0.71,-2.49,-6.5,6.99
28.783712148666382,0.58,-2.82,0.1,2.88
28.79861807823181,0.27,2.02,10.92,11.1
28.817174196243286,-1.63,10.03,10.99,14.96
28.81869387626648,-1.56,5.42,-8.64,10.31
28.832726001739502,0.37,-3.93,-16.03,16.5
28.83389687538147,1.41,-6.18,-0.1,6.33
28.848161935806274,1.07,-7.53,1.92,7.84
28.86682391166687,1.22,-2.75,6.32,6.99
28.868347883224487,-0.01,2.74,3.69,4.59
28.882935047149658,-2.5,4.97,-5.29,7.67
28.88411593437195,0.75,-1.43,-3.14,3.53
28.899102926254272,1.85,1.81,2.45,3.56
28.91758894920349,0.62,5.2,2.94,6.0
28.91911292076111,1.25,-2.94,3.21,4.52
28.93264412879944,-0.6,-5.14,-0.77,5.23
28.933791875839233,-0.78,0.62,-4.57,4.67
28.949254035949707,1.45,2.3,-3.48,4.41
28.967817068099976,1.1,0.43,2.92,3.14
28.96929621696472,1.43,-3.22,4.58,5.77
28.98283100128174,0.35,0.54,-1.74,1.85
28.984030961990356,-1.06,6.1,-10.38,12.08
28.998767137527466,0.13,-0.5,-0.76,0.91
29.01711916923523,1.78,-6.56,9.48,11.66
29.018691062927246,1.39,-7.0,8.32,10.96
29.03293490409851,-0.31,0.96,-5.53,5.62
29.034165143966675,-0.8,7.82,-9.72,12.5
29.049152135849,0.76,1.59,4.6,4.92
29.067707061767578,0.9,2.41,7.69,8.1
29.06925106048584,0.06,-2.43,-3.28,4.08
29.082361936569214,0.27,-8.19,-5.15,9.67
29.083611011505127,1.17,-5.18,6.09,8.08
29.099262952804565,-0.57,8.22,2.08,8.49
29.117922067642212,0.53,10.48,-9.1,13.88
29.1193790435791,0.59,-4.68,2.27,5.23
29.132753133773804,0.36,-7.84,8.24,11.37
29.133944988250732,-0.47,1.26,-2.43,2.77
29.148961067199707,-0.94,6.98,-11.29,13.3
29.16752791404724,0.36,-2.27,2.97,3.75
29.16906499862671,0.72,-6.06,10.49,12.13
29.18352198600769,-0.94,1.72,-2.99,3.57
29.18470311164856,-0.36,2.2,-14.14,14.31
29.199060201644897,0.0,-4.94,1.77,5.24
29.217555046081543,0.78,0.01,8.77,8.8
29.219051122665405,-0.24,4.35,6.6,7.9
29.23279595375061,-0.29,2.34,-0.84,2.5
29.234001874923706,0.01,2.55,-9.31,9.65
29.24877619743347,0.05,-3.28,-4.74,5.76
29.267579078674316,0.42,-7.71,2.29,8.05
29.26909303665161,0.43,-4.03,4.09,5.75
29.282827138900757,-1.31,4.7,2.56,5.5
29.28402304649353,-1.21,11.99,-0.13,12.05
29.29916000366211,1.17,-1.96,-3.46,4.14
29.31843590736389,-0.08,-8.79,-2.12,9.04
29.31995987892151,-0.11,-1.73,-0.56,1.82
29.33258318901062,-0.13,0.34,-0.2,0.41
29.333717107772827,-0.24,0.23,4.18,4.19
29.349169969558716,-0.3,2.02,3.48,4.03
29.367847204208374,-1.28,2.86,-3.05,4.37
29.36938786506653,-0.34,-4.12,-2.85,5.02
29.38284707069397,0.71,-6.47,5.98,8.83
29.384027004241943,-0.05,1.01,5.88,5.96
29.399075031280518,-0.71,7.01,-1.33,7.17
29.417640924453735,-0.79,0.84,-6.9,6.99
29.41917109489441,0.36,-2.99,-1.53,3.37
29.433183908462524,0.92,-0.19,-2.71,2.86
29.434401988983154,-0.09,-2.3,-4.11,4.71
29.44982600212097,-0.53,-3.83,1.11,4.02
29.469029188156128,-1.03,1.84,4.28,4.77
29.470582008361816,-0.82,8.14,0.96,8.23
29.481488943099976,-0.07,2.28,-4.5,5.04
29.482676029205322,0.18,-5.67,0.09,5.67
29.498171091079712,0.34,-7.22,2.12,7.53
29.516607999801636,-0.92,-1.51,0.88,1.97
29.518137216567993,-1.9,5.49,-1.21,5.93
29.532655954360962,-1.0,4.24,-2.12,4.84
29.533822059631348,-0.43,-3.45,0.36,3.49
29.550459146499634,0.12,-0.98,-1.38,1.69
29.570005178451538,0.49,0.65,-4.33,4.4
29.571521043777466,-0.05,0.51,0.98,1.1
29.582815885543823,-1.23,2.17,4.15,4.84
29.584033012390137,-1.17,-1.31,5.29,5.57
29.599283933639526,-0.78,-1.15,-0.86,1.63
29.617974042892456,-0.18,-3.34,-3.97,5.19
29.6195170879364,1.16,-2.12,4.05,4.71
29.632925987243652,0.36,1.85,5.38,5.7
29.63411808013916,-1.16,2.73,0.6,3.02
29.649729013442993,0.2,3.11,-3.44,4.64
29.66883111000061,-0.31,-2.29,-3.15,3.9
29.67034411430359,0.41,-4.59,1.09,4.73
29.682862043380737,0.95,1.31,-1.76,2.39
29.684046983718872,-0.31,1.73,-9.59,9.74
29.699021100997925,0.08,-3.45,-1.17,3.64
29.717675924301147,0.2,-0.47,4.02,4.05
29.719167947769165,-1.35,3.69,3.85,5.5
29.732757091522217,-1.73,-0.6,4.31,4.68
29.733967065811157,-0.56,-2.44,5.75,6.27
29.748768091201782,-0.17,4.07,-5.53,6.86
29.76745104789734,-1.39,2.96,-13.55,13.93
29.768973112106323,-1.34,-4.31,-1.24,4.68
29.782821893692017,-1.05,-4.49,5.56,7.22
29.784003019332886,-1.66,2.59,4.67,5.59
29.798773050308228,-2.02,2.51,-5.97,6.78
29.817418098449707,-0.26,-3.19,-1.39,3.48
29.818936109542847,1.85,-1.75,5.46,6.02
29.832799196243286,1.22,1.77,3.76,4.33
29.833967924118042,-0.67,5.7,-1.39,5.9
29.849663972854614,-0.52,-0.36,-1.47,1.6
29.86802887916565,0.06,-5.88,3.96,7.08
29.86956810951233,-0.18,-1.2,2.27,2.57
29.882706880569458,-0.77,0.48,-6.92,6.97
29.883908987045288,-0.57,-2.08,-2.18,3.06
29.899121046066284,-0.04,-0.29,4.28,4.29
29.91759705543518,-0.63,-0.01,6.44,6.47
29.91911292076111,-1.3,4.52,0.47,4.72
29.93325114250183,0.97,1.9,-3.74,4.3
29.934468984603882,1.09,-2.65,1.83,3.39
29.9495530128479,0.07,0.71,-4.35,4.4
29.967957019805908,-2.13,-0.4,-7.61,7.91
29.969475984573364,-1.57,-2.32,-0.52,2.84
29.983046054840088,0.43,-2.7,3.68,4.58
29.984255075454712,1.69,-2.01,5.37,5.97
29.99925208091736,0.12,4.3,0.05,4.3
30.01748490333557,-1.41,3.76,0.87,4.1
30.0190589427948,-1.19,-0.16,4.05,4.22
30.03310990333557,-1.84,2.64,-5.02,5.96
30.034322023391724,-2.36,0.48,-10.99,11.25
30.04882001876831,-0.39,-5.15,0.8,5.22
30.06720995903015,-0.14,-2.44,6.44,6.88
