time,ax,ay,az,atotal
0.01125478744506836,0.07,0.01,-0.37,0.37
0.014991998672485352,0.06,-0.02,-0.19,0.2
0.025573015213012695,0.21,-0.08,-0.22,0.31
0.0346529483795166,0.29,-0.12,-0.22,0.38
0.04454612731933594,0.19,-0.13,-0.09,0.24
0.05513596534729004,0.11,-0.08,0.03,0.13
0.06465387344360352,0.14,-0.06,0.1,0.18
0.07532787322998047,0.18,-0.09,0.07,0.21
0.0846710205078125,0.18,-0.1,0.06,0.21
0.09460210800170898,0.11,-0.09,0.01,0.14
0.10456991195678711,0.02,-0.07,-0.12,0.14
0.11438179016113281,0.0,-0.02,-0.32,0.32
0.12481307983398438,0.08,-0.02,-0.59,0.59
0.13458490371704102,0.16,-0.01,-0.69,0.7
0.14418506622314453,0.23,0.08,-0.52,0.57
0.15429997444152832,0.24,0.12,-0.34,0.43
0.1650409698486328,0.2,0.1,-0.14,0.26
0.17765593528747559,0.1,0.07,-0.02,0.12
0.18419408798217773,0.0,0.0,-0.01,0.01
0.19673681259155273,-0.09,-0.09,-0.03,0.13
0.2044079303741455,-0.19,-0.1,-0.11,0.24
0.21528291702270508,-0.21,-0.08,-0.14,0.26
0.22781085968017578,-0.12,-0.05,-0.15,0.19
0.23372602462768555,-0.04,-0.03,-0.18,0.18
0.24784612655639648,-0.02,0.02,-0.06,0.06
0.25391697883605957,0.0,0.04,-0.07,0.08
0.2657790184020996,0.05,0.05,-0.31,0.31
0.2796139717102051,0.14,0.06,-0.59,0.6
0.28328514099121094,0.12,0.04,-0.74,0.75
0.29848289489746094,-0.02,0.07,-0.67,0.67
0.3030848503112793,-0.23,0.13,-0.47,0.53
0.313784122467041,-0.15,-0.25,-0.66,0.72
0.3255279064178467,0.06,0.05,-0.22,0.23
0.33357906341552734,-0.11,0.37,0.37,0.53
0.3431510925292969,-0.2,0.26,0.68,0.75
0.3538241386413574,-0.24,0.1,0.89,0.92
0.36327195167541504,-0.24,0.14,0.66,0.71
0.3770899772644043,-0.21,0.17,0.44,0.51
0.3827359676361084,-0.09,0.18,0.59,0.62
0.39791011810302734,0.15,0.19,0.86,0.89
0.40300798416137695,0.18,0.06,0.75,0.77
0.41490602493286133,0.0,-0.12,0.28,0.3
0.42781496047973633,-0.13,-0.12,-0.39,0.42
0.4326639175415039,-0.15,0.07,-0.8,0.81
0.44843006134033203,-0.04,0.23,-0.81,0.84
0.45279884338378906,0.08,0.21,-0.74,0.77
0.4655728340148926,0.2,0.16,-0.66,0.7
0.47828102111816406,0.28,0.12,-0.65,0.71
0.4825758934020996,0.29,0.16,-0.71,0.78
0.49810099601745605,0.28,0.25,-0.75,0.83
0.5025548934936523,0.23,0.25,-0.61,0.69
0.5155320167541504,0.18,0.15,-0.32,0.39
0.5288820266723633,0.09,0.05,0.14,0.17
0.5319359302520752,0.17,0.02,0.5,0.52
0.5476839542388916,0.26,-0.06,0.54,0.6
0.5518198013305664,0.33,-0.14,0.34,0.49
0.5648069381713867,0.37,-0.16,-0.02,0.4
0.5788149833679199,0.34,-0.07,-0.28,0.44
0.5816519260406494,0.31,0.03,-0.4,0.5
0.5980448722839355,0.28,0.05,-0.32,0.42
0.6014299392700195,0.23,-0.02,-0.19,0.29
0.6173520088195801,0.23,-0.08,-0.06,0.25
0.6312029361724854,0.32,-0.06,-0.04,0.32
0.6327869892120361,0.4,-0.03,-0.04,0.4
0.6476149559020996,0.47,0.0,-0.06,0.47
0.6512160301208496,0.5,-0.02,-0.11,0.51
0.6648130416870117,0.48,-0.02,-0.14,0.5
0.6767940521240234,0.41,-0.03,-0.17,0.44
0.6813809871673584,0.33,-0.08,-0.2,0.39
0.6909561157226562,0.24,-0.14,-0.31,0.41
0.7014219760894775,0.11,-0.17,-0.3,0.36
0.7112278938293457,0.11,-0.17,-0.15,0.25
0.7235419750213623,0.16,-0.23,-0.06,0.28
0.7313539981842041,0.1,-0.32,-0.09,0.34
0.7409391403198242,-0.03,-0.35,-0.3,0.46
0.7515039443969727,-0.15,-0.31,-0.49,0.59
0.7610220909118652,-0.2,-0.24,-0.52,0.6
0.7740459442138672,-0.18,-0.22,-0.62,0.68
0.7812409400939941,-0.17,-0.25,-0.72,0.78
0.791132926940918,-0.21,-0.22,-0.68,0.74
0.8012709617614746,-0.3,-0.17,-0.56,0.65
0.8109230995178223,-0.35,-0.17,-0.37,0.53
0.8239169120788574,-0.31,-0.15,-0.28,0.44
0.8312621116638184,-0.29,-0.15,-0.3,0.44
0.8405790328979492,-0.32,-0.14,-0.24,0.42
0.8512840270996094,-0.35,-0.05,0.05,0.35
0.8610978126525879,-0.28,0.03,0.42,0.5
0.8748440742492676,-0.11,-0.02,0.53,0.54
0.880547046661377,-0.02,-0.07,0.48,0.48
0.8900949954986572,-0.08,-0.05,0.35,0.36
0.900458812713623,-0.2,0.01,0.24,0.31
0.9103560447692871,-0.19,0.07,0.25,0.32
0.9244771003723145,-0.05,0.07,0.24,0.25
0.9303309917449951,0.07,0.05,0.14,0.16
0.9401578903198242,0.08,0.06,0.08,0.12
0.9504218101501465,0.07,0.1,0.09,0.15
0.9603869915008545,0.08,0.13,0.16,0.22
0.9748721122741699,0.2,0.1,0.11,0.24
0.9800930023193359,0.28,0.01,0.02,0.28
0.9893298149108887,0.25,0.01,-0.08,0.26
0.9999270439147949,0.18,0.1,-0.11,0.23
1.0100269317626953,0.17,0.17,-0.12,0.26
1.0232789516448975,0.21,0.15,-0.13,0.28
1.029468059539795,0.26,0.11,-0.15,0.31
1.0394411087036133,0.27,0.09,-0.24,0.37
1.049750804901123,0.27,0.12,-0.42,0.51
1.0593748092651367,0.29,0.11,-0.56,0.64
1.071363925933838,0.31,0.09,-0.61,0.69
1.0787668228149414,0.33,0.12,-0.61,0.7
1.0894818305969238,0.35,0.17,-0.49,0.62
1.0995121002197266,0.39,0.18,-0.32,0.53
1.1095860004425049,0.41,0.17,-0.17,0.47
1.123021125793457,0.39,0.15,-0.04,0.41
1.1287598609924316,0.38,0.16,0.1,0.42
1.1385579109191895,0.36,0.14,0.19,0.43
1.149341106414795,0.29,0.09,0.26,0.39
1.1588430404663086,0.21,0.09,0.32,0.39
1.1710479259490967,0.2,0.07,0.31,0.37
1.178299903869629,0.19,0.02,0.27,0.33
1.1885628700256348,0.2,-0.01,0.15,0.25
1.1992459297180176,0.17,0.01,0.01,0.17
1.2088298797607422,0.14,0.04,-0.06,0.15
1.2227210998535156,0.16,0.06,-0.09,0.19
1.2281179428100586,0.2,0.06,-0.05,0.21
1.2385549545288086,0.19,0.03,-0.05,0.19
1.248769998550415,0.13,-0.01,-0.09,0.15
1.2582130432128906,0.04,-0.01,-0.09,0.09
1.2728869915008545,-0.04,0.01,-0.08,0.09
1.2774789333343506,-0.04,0.03,-0.08,0.09
1.2881278991699219,0.01,0.05,-0.06,0.07
1.2985479831695557,0.07,0.08,-0.01,0.1
1.3082771301269531,0.09,0.1,-0.02,0.13
1.3211898803710938,0.04,0.06,-0.17,0.18
1.3281269073486328,-0.04,0.01,-0.34,0.34
1.3377089500427246,-0.11,0.02,-0.39,0.4
1.3491220474243164,-0.16,0.03,-0.42,0.45
1.3584299087524414,-0.17,-0.01,-0.48,0.5
1.3713479042053223,-0.2,-0.05,-0.54,0.57
1.377120018005371,-0.21,-0.01,-0.53,0.57
1.3876070976257324,-0.2,0.06,-0.42,0.46
1.3975830078125,-0.14,0.09,-0.29,0.33
1.4076991081237793,-0.08,0.05,-0.19,0.21
1.4209527969360352,-0.05,0.01,-0.11,0.12
1.4270548820495605,-0.15,0.0,-0.04,0.15
1.437452793121338,-0.25,-0.01,-0.03,0.25
1.4470980167388916,-0.26,-0.03,-0.05,0.26
1.4577178955078125,-0.27,-0.04,-0.08,0.28
1.4707999229431152,-0.28,-0.02,-0.13,0.3
1.476958990097046,-0.25,-0.02,-0.16,0.29
1.4869379997253418,-0.19,-0.06,-0.22,0.29
1.4967749118804932,-0.23,-0.08,-0.3,0.38
1.5071120262145996,-0.31,-0.07,-0.38,0.49
1.5204100608825684,-0.32,-0.06,-0.42,0.53
1.526366949081421,-0.31,-0.07,-0.42,0.52
1.5368537902832031,-0.34,-0.09,-0.37,0.51
1.5465221405029297,-0.44,-0.11,-0.24,0.51
1.5567619800567627,-0.5,-0.11,-0.1,0.52
1.5694169998168945,-0.41,-0.1,0.0,0.42
1.5761709213256836,-0.33,-0.09,0.11,0.35
1.5868210792541504,-0.31,-0.05,0.18,0.36
1.5972161293029785,-0.29,-0.04,0.2,0.35
1.6066570281982422,-0.29,-0.08,0.15,0.33
1.6193981170654297,-0.3,-0.1,0.07,0.32
1.6258268356323242,-0.33,-0.09,-0.01,0.34
1.6359920501708984,-0.37,-0.11,-0.05,0.38
1.6458511352539062,-0.41,-0.12,-0.05,0.43
1.6561861038208008,-0.38,-0.12,-0.08,0.4
1.6692769527435303,-0.32,-0.12,-0.06,0.34
1.675771951675415,-0.21,-0.08,0.03,0.22
1.6858210563659668,-0.14,-0.04,0.12,0.18
1.6958959102630615,-0.11,-0.05,0.19,0.22
1.705833911895752,-0.14,-0.1,0.21,0.27
1.7184810638427734,-0.18,-0.14,0.16,0.27
1.7252798080444336,-0.21,-0.14,0.08,0.26
1.7356228828430176,-0.19,-0.11,-0.12,0.25
1.7454349994659424,-0.15,-0.08,-0.31,0.35
1.755876064300537,-0.13,-0.05,-0.42,0.44
1.7686090469360352,-0.12,-0.03,-0.44,0.45
1.7751188278198242,-0.11,-0.05,-0.33,0.35
1.7853608131408691,-0.03,-0.06,-0.17,0.18
1.7954540252685547,0.02,-0.04,0.05,0.06
1.8055410385131836,0.08,-0.04,0.28,0.29
1.8186450004577637,0.12,-0.09,0.37,0.39
1.8249599933624268,0.12,-0.12,0.3,0.34
1.8348031044006348,0.15,-0.1,0.13,0.22
1.845499038696289,0.2,-0.06,-0.08,0.22
1.855268955230713,0.28,-0.02,-0.29,0.4
1.8688788414001465,0.31,-0.01,-0.44,0.53
1.8744421005249023,0.3,0.0,-0.48,0.56
1.8846499919891357,0.3,0.01,-0.49,0.57
1.894320011138916,0.32,0.0,-0.43,0.53
1.9051499366760254,0.34,0.01,-0.3,0.45
1.9190869331359863,0.32,0.05,-0.11,0.34
1.924191951751709,0.33,0.08,0.07,0.34
1.9346020221710205,0.43,0.05,0.13,0.45
1.9441590309143066,0.5,0.03,0.11,0.51
1.9547059535980225,0.46,0.03,0.0,0.46
1.967970848083496,0.34,0.01,-0.12,0.36
1.974139928817749,0.25,-0.05,-0.17,0.3
1.9839410781860352,0.25,-0.12,-0.19,0.33
1.9939119815826416,0.29,-0.13,-0.17,0.36
2.0044097900390625,0.32,-0.08,-0.17,0.37
2.0180089473724365,0.34,-0.04,-0.21,0.4
2.0236520767211914,0.34,-0.05,-0.24,0.41
2.033945083618164,0.35,-0.1,-0.29,0.46
2.0436840057373047,0.29,-0.06,-0.23,0.37
2.0542120933532715,0.19,-0.02,-0.13,0.23
2.068202018737793,0.17,-0.04,-0.07,0.18
2.0732669830322266,0.2,-0.05,-0.01,0.2
2.0836920738220215,0.23,-0.05,0.0,0.23
2.0934150218963623,0.26,-0.03,-0.01,0.26
2.1042728424072266,0.31,-0.03,-0.06,0.31
2.118770122528076,0.3,-0.09,-0.18,0.36
2.1232619285583496,0.22,-0.1,-0.28,0.36
2.133600950241089,0.1,-0.08,-0.28,0.3
2.143117904663086,-0.01,-0.14,-0.24,0.27
2.1535990238189697,-0.08,-0.26,-0.23,0.35
2.167357921600342,-0.17,-0.3,-0.16,0.38
2.1728720664978027,-0.26,-0.26,-0.05,0.37
2.1835079193115234,-0.25,-0.22,0.08,0.34
2.1929049491882324,-0.17,-0.21,0.12,0.29
2.2034878730773926,-0.12,-0.25,0.01,0.27
2.2173948287963867,-0.06,-0.22,-0.18,0.29
2.2226600646972656,-0.05,-0.18,-0.36,0.4
2.233505964279175,-0.07,-0.15,-0.46,0.48
2.242388963699341,-0.09,-0.13,-0.45,0.47
2.2533340454101562,-0.12,-0.13,-0.38,0.41
2.2673449516296387,-0.17,-0.12,-0.33,0.39
2.2723050117492676,-0.2,-0.09,-0.31,0.37
2.2833328247070312,-0.21,-0.04,-0.31,0.37
2.292379856109619,-0.23,0.01,-0.29,0.37
2.302794933319092,-0.23,0.06,-0.27,0.35
2.317309856414795,-0.23,0.09,-0.19,0.31
2.3219449520111084,-0.26,0.08,-0.05,0.27
2.3335161209106445,-0.26,0.06,0.08,0.27
2.342564105987549,-0.25,0.05,0.21,0.33
2.3523831367492676,-0.26,0.02,0.31,0.4
2.3657119274139404,-0.22,0.05,0.37,0.43
2.371711015701294,-0.16,0.09,0.37,0.41
2.383194923400879,-0.1,0.1,0.29,0.32
2.3918590545654297,-0.01,0.14,0.13,0.19
2.4023349285125732,0.08,0.16,-0.01,0.17
2.4165139198303223,0.08,0.18,-0.08,0.21
2.421544075012207,0.09,0.18,-0.14,0.24
2.4339981079101562,0.1,0.17,-0.12,0.23
2.4414889812469482,0.13,0.15,-0.07,0.21
2.452332019805908,0.15,0.13,-0.02,0.19
2.467108964920044,0.16,0.11,0.05,0.2
2.471451997756958,0.17,0.07,0.1,0.2
2.483959913253784,0.2,0.03,0.1,0.22
2.491370916366577,0.19,0.02,0.07,0.2
2.501290798187256,0.13,0.03,0.09,0.16
2.513835906982422,0.08,0.02,0.13,0.15
2.5210518836975098,0.07,0.0,0.14,0.15
2.5341529846191406,0.15,-0.01,0.08,0.17
2.5408458709716797,0.24,0.0,0.04,0.24
2.550938129425049,0.3,0.03,-0.02,0.3
2.56345796585083,0.32,0.03,-0.08,0.33
2.5707387924194336,0.31,0.05,-0.09,0.32
2.5857858657836914,0.31,0.06,-0.05,0.31
2.5905580520629883,0.34,0.04,0.05,0.34
2.6010608673095703,0.4,0.02,0.06,0.4
2.6141819953918457,0.42,0.02,-0.05,0.42
2.6204609870910645,0.36,0.06,-0.19,0.41
2.6327970027923584,0.28,0.09,-0.39,0.48
2.6402721405029297,0.26,0.11,-0.57,0.63
2.6505489349365234,0.25,0.09,-0.72,0.76
2.663437843322754,0.21,0.1,-0.81,0.84
2.670164108276367,0.09,0.1,-0.77,0.78
2.683633804321289,0.09,0.1,-0.61,0.62
2.689958095550537,0.16,0.09,-0.47,0.5
2.7006421089172363,0.24,0.05,-0.35,0.42
2.715651035308838,0.28,0.06,-0.29,0.4
2.7198410034179688,0.27,0.08,-0.28,0.39
2.7339539527893066,0.24,0.07,-0.28,0.37
2.739677906036377,0.15,-0.01,-0.25,0.29
2.749797821044922,0.06,-0.08,-0.17,0.19
2.7626609802246094,-0.02,-0.09,-0.11,0.14
2.7695398330688477,-0.02,-0.12,-0.07,0.14
2.7841739654541016,-0.01,-0.15,-0.02,0.15
2.7893548011779785,-0.02,-0.19,0.01,0.19
2.7997660636901855,-0.07,-0.17,0.03,0.18
2.8125391006469727,-0.12,-0.12,0.03,0.17
2.8197178840637207,-0.01,-0.07,-0.02,0.07
2.834299087524414,0.05,-0.05,-0.1,0.12
2.8394360542297363,0.04,-0.08,-0.23,0.24
2.8504879474639893,-0.39,-0.24,-0.11,0.47
2.8647398948669434,-0.6,-0.21,-0.19,0.66
2.869007110595703,-0.54,-0.04,-0.36,0.65
2.8838090896606445,-0.37,-0.05,-0.22,0.43
2.8889927864074707,-0.18,-0.07,0.05,0.19
2.9012160301208496,-0.24,-0.04,0.33,0.41
2.914412021636963,-0.22,0.05,0.58,0.62
2.918890953063965,-0.19,0.06,0.62,0.65
2.9353020191192627,-0.04,0.08,0.43,0.43
2.9389119148254395,0.17,0.14,0.15,0.26
2.9510819911956787,0.14,0.13,-0.08,0.2
2.9640698432922363,0.04,0.15,-0.22,0.26
2.9687070846557617,-0.01,0.19,-0.28,0.33
2.983236789703369,0.04,0.15,-0.26,0.3
2.988621950149536,0.08,0.08,-0.25,0.27
2.9999308586120605,0.05,0.03,-0.12,0.13
3.0122640132904053,-0.02,0.08,-0.12,0.14
3.0181660652160645,-0.02,0.17,-0.29,0.33
3.0333399772644043,0.05,0.21,-0.46,0.5
3.037990093231201,0.04,0.14,-0.58,0.59
3.050136089324951,-0.06,-0.05,-0.42,0.42
3.0637049674987793,-0.3,-0.18,-0.12,0.36
3.068013906478882,-0.43,0.0,-0.34,0.54
3.0830349922180176,-0.46,0.18,-0.41,0.64
3.087782859802246,-0.24,0.14,-0.04,0.28
3.0998709201812744,0.04,0.12,0.45,0.46
3.1125998497009277,0.14,0.11,0.65,0.67
3.118058919906616,0.09,0.06,0.5,0.51
3.1336069107055664,-0.1,0.0,0.19,0.21
3.1378540992736816,-0.31,-0.05,-0.08,0.32
3.149779796600342,-0.41,-0.14,-0.08,0.44
3.1635918617248535,-0.4,-0.22,0.15,0.48
3.167510986328125,-0.31,-0.28,0.47,0.62
3.183623790740967,-0.24,-0.34,0.75,0.85
3.1871089935302734,-0.2,-0.41,0.87,0.98
3.199573040008545,-0.22,-0.48,0.72,0.89
3.2138359546661377,-0.34,-0.49,0.68,0.9
3.2171058654785156,-0.42,-0.51,0.63,0.91
3.2334489822387695,-0.33,-0.59,0.52,0.85
3.2369699478149414,-0.2,-0.62,0.35,0.73
3.2473299503326416,-0.11,-0.54,0.08,0.55
3.260550022125244,-0.07,-0.32,-0.07,0.33
3.267404079437256,-0.14,-0.12,-0.19,0.26
3.2769529819488525,-0.28,-0.11,-0.23,0.37
3.2868480682373047,0.05,-0.38,-0.21,0.43
3.296821117401123,-0.06,-0.42,-0.27,0.5
3.310133934020996,-0.16,-0.17,-0.76,0.79
3.3168540000915527,0.35,-0.08,-0.69,0.77
3.3264808654785156,0.78,-0.33,0.35,0.91
3.33701491355896,0.68,-0.37,0.38,0.86
3.3468880653381348,0.34,-0.27,-0.27,0.51
3.3602728843688965,-0.07,-0.29,-0.86,0.91
3.3664069175720215,-0.34,-0.41,-1.18,1.29
3.376631021499634,-0.37,-0.43,-1.23,1.35
3.386260986328125,-0.32,-0.26,-0.87,0.96
3.3962509632110596,-0.28,-0.1,-0.32,0.43
3.4093098640441895,-0.17,-0.09,-0.08,0.2
3.416283130645752,0.01,-0.11,-0.13,0.17
3.4257588386535645,0.19,-0.08,-0.23,0.3
3.4364800453186035,0.31,-0.14,-0.27,0.43
3.4462249279022217,0.53,-0.12,0.02,0.54
3.459146022796631,0.62,-0.02,0.17,0.64
3.466165065765381,0.48,0.0,0.13,0.49
3.475752830505371,0.46,0.01,-0.02,0.46
3.4862749576568604,0.4,0.01,-0.38,0.55
3.495594024658203,0.18,0.1,-0.45,0.49
3.508584976196289,0.0,0.23,-0.13,0.26
3.5162549018859863,0.05,0.23,0.04,0.23
3.525394916534424,0.17,0.18,0.02,0.24
3.5355920791625977,0.2,0.21,0.01,0.29
3.5456647872924805,0.27,0.23,0.09,0.36
3.5629990100860596,0.26,0.09,0.04,0.27
3.565603017807007,0.09,-0.06,0.02,0.1
3.5828099250793457,-0.06,-0.1,0.16,0.19
3.584965944290161,-0.04,-0.07,0.23,0.24
3.5984458923339844,0.33,0.03,0.1,0.34
3.6117100715637207,0.79,0.18,0.32,0.87
3.6158361434936523,0.62,0.11,1.21,1.36
3.6250290870666504,0.14,0.03,1.24,1.24
3.6349921226501465,-0.25,0.17,0.14,0.33
3.644566059112549,-0.43,0.02,-0.76,0.87
3.658112049102783,-0.41,-0.26,-0.6,0.77
3.6646618843078613,-0.38,-0.23,0.31,0.54
3.6747050285339355,-0.37,-0.12,0.95,1.02
3.6848278045654297,-0.22,-0.1,1.09,1.11
3.6946330070495605,-0.05,-0.2,1.01,1.03
3.707697868347168,-0.02,-0.22,1.0,1.02
3.7148780822753906,-0.01,-0.13,0.73,0.74
3.7247490882873535,0.04,-0.06,0.3,0.3
3.734628915786743,0.0,0.01,0.14,0.14
3.7446839809417725,0.07,0.0,0.0,0.07
3.7580809593200684,0.24,0.01,-0.17,0.29
3.7641079425811768,0.52,0.53,0.68,1.0
3.774044990539551,0.46,0.43,0.4,0.74
3.7843120098114014,0.29,0.19,-0.4,0.52
3.7944889068603516,0.09,0.09,-1.01,1.01
3.8092730045318604,0.19,0.22,-1.72,1.74
3.8142309188842773,0.44,0.55,-1.26,1.44
3.823936939239502,0.51,0.86,-0.98,1.4
3.8343939781188965,0.47,0.79,-1.04,1.38
3.844092845916748,0.45,0.56,-1.16,1.36
3.8594398498535156,0.56,0.49,-1.2,1.41
3.863856792449951,0.5,0.5,-0.97,1.2
3.873694896697998,0.28,0.26,-0.96,1.03
3.8837499618530273,0.05,0.0,-1.36,1.36
3.8939948081970215,-0.07,0.03,-1.51,1.51
3.909726142883301,-0.29,0.03,-1.43,1.45
3.9131219387054443,-0.57,0.03,-1.23,1.35
3.9234519004821777,-0.65,0.02,-1.03,1.21
3.9332990646362305,-0.58,-0.06,-0.48,0.75
3.943513870239258,-0.39,-0.1,0.12,0.42
3.957336902618408,-0.09,-0.02,0.3,0.31
3.963254928588867,0.16,0.01,0.37,0.4
3.9729340076446533,0.25,0.0,0.49,0.55
3.98350191116333,0.21,0.01,0.84,0.86
3.99296498298645,0.07,0.0,1.39,1.39
4.006401062011719,-0.04,0.0,1.51,1.51
4.012662887573242,0.08,0.1,1.25,1.25
4.022830009460449,0.17,0.13,0.76,0.78
4.033979892730713,0.18,-0.18,0.54,0.59
4.042683124542236,0.21,-0.54,0.79,0.97
4.056291103363037,0.22,-0.49,0.83,0.98
4.0623109340667725,0.29,-0.41,0.33,0.6
4.073028087615967,0.41,-0.36,-0.18,0.57
4.082756042480469,0.36,-0.43,-0.43,0.7
4.093091011047363,0.3,-0.61,-0.74,1.0
4.108299970626831,0.46,-0.68,-0.59,1.01
4.112205982208252,0.63,-0.48,-0.42,0.89
4.122107982635498,0.72,-0.19,-0.75,1.05
4.132735967636108,0.57,-0.09,-1.41,1.52
4.142510890960693,0.06,-0.1,-1.57,1.57
4.158190965652466,-0.11,-0.1,-1.19,1.19
4.161933898925781,0.17,-0.21,-0.83,0.87
4.172116994857788,0.62,-0.11,-0.56,0.84
4.1821980476379395,0.61,0.04,0.06,0.61
4.192275047302246,0.2,0.14,0.67,0.71
4.208116054534912,-0.09,0.11,0.87,0.88
4.211513996124268,-0.09,0.04,0.79,0.79
4.2220988273620605,0.15,-0.09,0.42,0.45
4.231813907623291,0.36,-0.21,-0.15,0.44
4.2416090965271,0.48,-0.28,-0.55,0.78
4.256659984588623,0.54,-0.36,-0.46,0.79
4.261145114898682,0.28,-0.47,-0.02,0.54
4.271566867828369,-0.08,-0.55,-0.08,0.56
4.281369924545288,-0.3,-0.57,-0.01,0.64
4.291263103485107,-0.21,-0.46,0.51,0.71
4.305545806884766,0.26,-0.44,0.95,1.07
4.3113319873809814,0.62,-0.21,1.39,1.53
4.321090936660767,0.68,0.11,1.63,1.76
4.331606864929199,0.69,0.2,1.44,1.6
4.341104030609131,0.56,0.06,0.95,1.1
4.355960845947266,0.25,-0.15,0.45,0.53
4.360708951950073,-0.03,-0.16,0.09,0.18
4.370849132537842,-0.27,-0.27,-0.32,0.49
4.380785942077637,-0.42,-0.31,-0.87,1.01
4.39084792137146,-0.55,-0.42,-1.41,1.57
4.405359983444214,-0.57,-0.36,-1.72,1.84
4.410438060760498,-0.52,-0.22,-1.65,1.74
4.4208807945251465,-0.84,0.07,-1.57,1.78
4.430534839630127,-0.57,0.44,-1.69,1.83
4.440910816192627,0.11,0.51,-2.1,2.16
4.4549880027771,0.75,0.51,-2.45,2.61
4.460411071777344,0.98,0.34,-2.48,2.68
4.4704999923706055,0.67,0.07,-2.0,2.11
4.480164051055908,-0.05,-0.28,-0.38,0.47
4.490216970443726,-0.5,-0.69,0.97,1.29
4.504512786865234,-0.49,-0.99,1.46,1.83
4.5098350048065186,0.47,-0.2,-0.39,0.64
4.519960880279541,1.4,0.68,-1.83,2.4
4.530350923538208,0.69,0.54,0.77,1.16
4.540019989013672,-0.04,0.71,1.05,1.26
4.555817127227783,-0.04,0.34,0.49,0.59
4.559548854827881,0.04,-0.12,1.22,1.22
4.570029020309448,0.07,-0.54,2.43,2.49
4.5794079303741455,0.44,-0.91,3.23,3.38
4.589756965637207,0.54,-0.42,2.06,2.17
4.604298114776611,0.15,-0.29,0.9,0.95
4.6094069480896,-0.06,-0.07,0.6,0.6
4.619380950927734,-0.52,0.18,0.85,1.01
4.629287004470825,-1.35,-0.32,1.63,2.14
4.639759063720703,-1.97,-1.02,1.39,2.61
4.654953956604004,-1.93,-1.34,-0.31,2.36
4.659258842468262,-1.85,-0.79,-0.46,2.06
4.669166088104248,-0.47,-0.33,-1.46,1.56
4.679225921630859,2.11,-0.35,-0.96,2.34
4.689198970794678,3.46,-1.86,-0.73,3.99
4.704425811767578,2.37,-2.26,-1.39,3.55
4.708806037902832,2.1,-1.36,-2.19,3.32
4.718844890594482,0.77,-0.87,-2.46,2.72
4.728732109069824,0.83,0.49,-1.99,2.21
4.73920202255249,0.03,1.55,-1.66,2.27
4.754950046539307,-0.19,1.42,-1.31,1.94
4.758325099945068,-0.34,1.42,-1.44,2.05
4.769031047821045,-1.12,1.28,-1.71,2.41
4.778579950332642,-1.6,1.24,-1.5,2.51
4.789099931716919,-2.2,0.99,-1.43,2.8
4.804502964019775,-2.55,0.66,-1.23,2.9
4.808463096618652,-2.12,0.12,-0.7,2.23
4.818306922912598,-1.67,-0.3,-0.86,1.9
4.828387975692749,-1.51,-0.39,-1.62,2.24
4.838408946990967,-2.16,-0.07,-2.05,2.97
4.853542804718018,-2.03,0.16,-2.22,3.01
4.858057022094727,-1.91,0.24,-2.02,2.79
4.868206977844238,-1.91,0.21,-1.64,2.52
4.8781538009643555,-1.53,0.76,-1.83,2.5
4.888189792633057,-0.33,0.79,-2.41,2.55
4.9036078453063965,0.48,0.1,-2.07,2.12
4.90765905380249,0.7,-0.19,-0.68,0.99
4.918034076690674,0.95,-1.05,1.36,1.96
4.927812099456787,3.95,-1.84,3.11,5.35
4.938223838806152,6.12,-1.76,4.6,7.85
4.953216075897217,2.01,-0.12,3.21,3.78
4.957082986831665,-1.05,0.19,1.93,2.2
4.9681878089904785,-1.36,-0.51,1.85,2.35
4.977550983428955,-0.97,-0.25,1.38,1.7
4.987533092498779,-0.83,-1.19,1.65,2.19
5.002068042755127,-0.44,-0.42,2.04,2.12
5.007297039031982,-0.41,-0.12,1.86,1.9
5.017749786376953,0.13,0.53,0.98,1.12
5.02762508392334,0.72,0.56,0.07,0.91
5.0372419357299805,0.6,0.91,-0.42,1.16
5.0522239208221436,0.28,0.81,-0.91,1.25
5.056656837463379,0.1,0.14,-0.75,0.76
5.067716121673584,0.29,-1.08,-0.34,1.16
5.076720952987671,0.34,-1.07,-0.12,1.12
5.087153911590576,0.66,-1.21,-0.13,1.38
5.102316856384277,-0.01,-0.86,0.37,0.93
5.106257915496826,-0.72,-0.91,0.91,1.47
5.11747407913208,-1.29,-1.26,1.68,2.46
5.126758098602295,-2.66,-0.76,1.82,3.31
5.1371519565582275,-2.83,-0.85,1.34,3.24
5.152355909347534,-1.85,-1.54,0.76,2.52
5.156282901763916,-1.52,1.15,-1.42,2.37
5.167901992797852,0.74,-1.31,-3.07,3.41
5.1767189502716064,1.35,-2.43,-1.68,3.24
5.186244010925293,2.16,0.21,-2.32,3.17
5.200930118560791,0.64,2.81,-1.63,3.31
5.205878019332886,1.1,1.11,-0.73,1.72
5.2176899909973145,0.82,2.56,-0.47,2.72
5.22615385055542,1.06,2.45,-2.69,3.78
5.2361040115356445,1.09,1.65,-2.57,3.24
5.251018047332764,0.96,0.88,-1.97,2.36
5.255626916885376,0.66,0.46,-0.99,1.27
5.267789840698242,0.38,0.31,-0.25,0.55
5.275609016418457,0.04,-0.09,0.09,0.13
5.286164999008179,-0.12,-0.61,-0.19,0.65
5.301527976989746,-0.32,-0.98,-0.48,1.13
5.305634021759033,-0.8,-0.95,-0.33,1.28
5.317659854888916,-1.24,-0.6,-0.44,1.44
5.32545280456543,-1.21,-0.15,-0.51,1.32
5.3356099128723145,-1.01,0.19,0.38,1.09
5.350487947463989,-1.37,0.55,1.26,1.94
5.355137825012207,-2.34,1.25,1.59,3.09
5.368775844573975,-1.28,1.91,0.82,2.44
5.375105857849121,0.17,1.1,0.43,1.19
5.385231018066406,1.18,0.72,0.17,1.39
5.399253845214844,1.45,0.91,0.11,1.71
5.4049599170684814,1.79,0.0,0.63,1.89
5.417870044708252,2.0,-1.64,0.41,2.61
5.424891948699951,1.19,-0.45,0.78,1.49
5.434970855712891,0.41,-0.02,2.27,2.3
5.44856595993042,1.11,-0.33,1.67,2.03
5.454413890838623,1.46,0.0,1.53,2.11
5.4674999713897705,0.86,-0.13,1.31,1.57
5.474493980407715,0.18,-0.18,1.37,1.39
5.484947919845581,0.16,-0.1,1.1,1.11
5.497527122497559,-0.16,0.33,0.45,0.58
5.504607915878296,-0.22,0.5,-0.24,0.59
5.517082929611206,-0.17,0.13,-0.76,0.78
5.524626016616821,0.0,-0.03,-1.34,1.34
5.537506103515625,0.26,0.04,-1.43,1.45
5.551746845245361,0.17,0.05,-1.02,1.03
5.55391788482666,-0.1,0.0,-0.39,0.4
5.568360805511475,-0.14,-0.33,-0.11,0.37
5.5739970207214355,-0.23,-0.45,-0.1,0.51
5.584432125091553,-0.67,-0.14,0.02,0.68
5.597530841827393,-0.86,-0.16,0.16,0.88
5.603739976882935,-0.99,-0.28,0.23,1.05
5.617707967758179,-1.13,-0.29,1.46,1.86
5.623692035675049,-0.16,0.34,1.37,1.42
5.634070873260498,0.55,0.41,0.22,0.72
5.647623062133789,-0.5,0.28,-0.76,0.95
5.653420925140381,-0.8,0.0,-0.88,1.18
5.667748928070068,-0.52,-0.45,-0.79,1.04
5.6733551025390625,-0.26,-0.24,-1.14,1.19
5.683955907821655,-0.14,-0.01,-1.38,1.38
5.696671962738037,-0.74,-0.51,-1.96,2.15
5.703251838684082,-1.69,-1.16,-1.93,2.81
5.717785835266113,1.22,-1.38,-1.29,2.24
5.7234179973602295,1.08,-0.89,-0.86,1.64
5.733947992324829,0.58,-0.39,-1.6,1.74
5.747580051422119,1.11,0.27,-1.03,1.53
5.7529168128967285,1.97,1.26,-0.79,2.46
5.768045902252197,1.14,2.33,-1.01,2.78
5.772818088531494,-0.54,0.59,-0.39,0.88
5.783936977386475,0.79,-0.65,0.99,1.42
5.797615051269531,-0.07,0.09,2.96,2.96
5.80253791809082,-0.03,-0.9,2.9,3.03
5.816493988037109,0.1,-0.99,2.31,2.51
5.822690963745117,0.71,-1.3,1.19,1.9
5.834415912628174,0.68,-0.41,1.31,1.53
5.848716974258423,-0.24,0.19,0.35,0.46
5.852459907531738,-0.45,0.93,-0.72,1.25
5.868524074554443,-0.07,0.55,1.19,1.31
5.8725128173828125,0.21,0.07,1.92,1.93
5.883472919464111,-0.4,0.43,0.61,0.84
5.897802829742432,0.07,-0.3,-0.92,0.97
5.901957988739014,0.45,-0.53,-2.12,2.23
5.912549018859863,0.13,-0.07,-2.12,2.12
5.922379016876221,-0.19,0.59,-1.24,1.38
5.932342052459717,-0.36,1.0,-0.2,1.08
5.94697380065918,-0.37,0.69,0.15,0.79
5.9515380859375,-0.31,0.26,-0.04,0.4
5.967304944992065,-1.12,0.72,-0.53,1.43
5.971733093261719,-5.81,-0.15,-1.16,5.92
5.983528137207031,-0.61,-1.96,-0.9,2.24
5.997409820556641,2.88,-1.73,0.61,3.41
6.001861095428467,2.56,-0.7,1.97,3.3
6.0180230140686035,1.54,0.58,2.19,2.73
6.021839141845703,0.96,1.82,2.55,3.27
6.033847808837891,1.57,1.2,2.33,3.05
6.047853946685791,0.83,0.11,0.0,0.83
6.051211833953857,-0.51,-0.23,-1.11,1.24
6.067357063293457,-0.85,-0.11,-1.09,1.38
6.0712480545043945,-0.3,0.46,-1.32,1.42
6.083506107330322,0.16,0.83,-1.44,1.66
6.097481966018677,-0.03,0.77,-1.3,1.51
6.101008892059326,-0.68,0.45,-1.49,1.69
6.11744499206543,-0.53,-0.46,-0.96,1.18
6.1209259033203125,0.48,-0.61,-1.39,1.59
6.133389949798584,0.97,-0.68,-2.06,2.37
6.147470951080322,0.27,-0.22,-1.16,1.21
6.150734901428223,0.0,-0.11,-0.37,0.38
6.168038845062256,-0.07,-0.2,-0.1,0.23
6.170581817626953,-0.26,-0.38,0.11,0.47
6.183021068572998,-0.77,-0.39,0.11,0.87
6.197190999984741,-1.06,-0.2,0.12,1.08
6.200718879699707,-1.27,0.18,0.57,1.4
6.217507839202881,-1.07,0.5,0.87,1.46
6.220612049102783,-0.23,0.54,1.47,1.58
6.233155012130737,0.45,0.24,0.79,0.94
6.247500896453857,0.68,-0.3,0.23,0.77
6.250040054321289,0.36,-0.39,0.17,0.55
6.268290042877197,0.02,-0.26,0.02,0.26
6.270071029663086,-0.1,-0.12,-0.26,0.3
6.284144878387451,-0.28,0.12,-0.19,0.35
6.298524856567383,-0.03,0.0,0.1,0.1
6.300002098083496,0.61,-0.38,0.31,0.78
6.317919969558716,0.8,-0.36,0.24,0.9
6.319823980331421,0.76,-0.2,0.27,0.83
6.333768844604492,0.2,0.11,0.82,0.85
6.347522974014282,-0.29,0.08,0.77,0.82
6.34977388381958,0.09,-0.34,0.29,0.45
6.367453098297119,0.47,-0.59,-1.93,2.07
6.369476795196533,-0.19,0.25,-2.24,2.26
6.383204936981201,-0.64,0.47,-1.75,1.92
6.395401954650879,-0.97,0.27,-1.4,1.72
6.40012001991272,-0.9,-0.08,-0.71,1.14
6.409412860870361,-0.41,-0.2,0.27,0.53
6.419322967529297,-0.44,-0.08,0.74,0.86
6.429340839385986,-0.77,0.06,1.24,1.46
6.441818952560425,-0.72,0.09,1.53,1.69
6.4492199420928955,-0.44,-0.03,1.29,1.36
6.4595489501953125,-0.11,-0.52,0.9,1.04
6.469273090362549,-0.04,-0.59,0.48,0.76
6.479154109954834,-0.17,-0.39,-0.05,0.42
6.49186897277832,-0.54,0.1,-0.71,0.89
6.498964786529541,-0.89,0.61,-1.19,1.6
6.5088701248168945,-0.76,0.62,-1.23,1.57
6.5194878578186035,-0.44,0.3,-1.13,1.24
6.5288591384887695,0.02,0.05,-0.73,0.73
6.542876958847046,0.45,-0.01,-0.26,0.51
6.548959970474243,0.91,-0.04,0.1,0.91
6.558614015579224,1.08,-0.18,0.55,1.22
6.569066047668457,0.94,-0.18,0.24,0.98
6.578357934951782,0.53,-0.12,0.4,0.67
6.591480016708374,-0.19,0.22,0.59,0.65
6.598176002502441,-0.28,0.49,-0.42,0.7
6.608256816864014,-0.31,0.33,-0.43,0.62
6.6186699867248535,-0.11,0.07,-1.15,1.15
6.628406047821045,0.13,-0.16,-1.19,1.2
6.641899108886719,0.34,-0.21,-0.35,0.53
6.647943019866943,0.37,-0.15,1.17,1.23
6.658630847930908,0.22,-0.28,1.45,1.49
6.668323993682861,-0.1,-0.14,1.23,1.24
6.67844295501709,-0.29,0.26,0.63,0.74
6.692857980728149,-0.13,0.49,-0.2,0.54
6.697997093200684,-0.21,0.65,-0.28,0.73
6.707953929901123,-0.4,0.55,-0.61,0.91
6.7181220054626465,-0.22,0.27,-1.35,1.39
6.727789878845215,-0.04,0.01,-1.54,1.54
6.742710113525391,0.1,-0.17,-1.63,1.64
6.747524976730347,0.17,-0.28,-1.71,1.74
6.7577149868011475,0.11,-0.06,-1.31,1.31
6.767794132232666,-0.17,0.51,-0.49,0.72
6.7775678634643555,-0.84,0.97,0.59,1.41
6.792473793029785,-1.22,0.52,1.35,1.89
6.796967029571533,-1.08,-0.31,1.72,2.05
6.8078179359436035,-0.48,-0.97,1.54,1.88
6.817617893218994,0.43,-1.66,0.98,1.97
6.827220916748047,1.14,-0.73,0.28,1.38
6.8417558670043945,1.06,0.17,-0.45,1.16
6.846829891204834,0.75,0.57,-0.8,1.23
6.857213973999023,0.32,0.71,-1.1,1.34
6.867448806762695,-0.54,0.74,-0.86,1.25
6.877029895782471,-0.82,0.26,-0.33,0.92
6.890985012054443,-0.75,-0.29,0.3,0.85
6.896745920181274,-0.28,-0.45,0.66,0.84
6.906881809234619,0.47,-0.38,0.82,1.01
6.917588949203491,0.63,-0.07,0.57,0.85
6.926631927490234,0.68,0.02,-0.32,0.75
6.940600872039795,0.52,0.0,-1.21,1.31
6.946059942245483,-0.1,0.37,-1.04,1.1
6.956735134124756,-0.56,0.49,-0.53,0.91
6.9666337966918945,-0.49,0.24,-0.36,0.65
6.976161956787109,-0.5,0.04,-0.02,0.5
6.989368915557861,-0.35,0.01,0.16,0.38
6.995884895324707,-0.13,-0.06,0.07,0.15
7.0065789222717285,-0.21,-0.37,-0.12,0.44
7.016515016555786,-0.28,-0.47,0.04,0.54
7.0263800621032715,-0.11,-0.41,0.17,0.45
7.0415589809417725,-0.06,-0.23,0.26,0.35
7.0455098152160645,0.12,0.04,0.13,0.18
7.055752992630005,0.02,0.29,0.09,0.3
7.065796852111816,-0.5,0.45,0.74,1.0
7.075933933258057,-0.31,0.28,1.08,1.15
7.09078311920166,0.18,0.07,0.91,0.93
7.095366954803467,0.34,-0.03,0.26,0.42
7.105425834655762,0.19,-0.08,-0.46,0.5
7.1159348487854,0.1,-0.12,-1.12,1.13
7.125627040863037,0.11,-0.15,-1.47,1.48
7.141080856323242,0.14,-0.08,-1.52,1.52
7.14517879486084,0.0,0.16,-0.87,0.88
7.1559858322143555,0.02,0.27,0.13,0.3
7.165169954299927,0.11,0.02,0.12,0.16
7.175411939620972,0.15,-0.46,0.71,0.85
7.189560890197754,0.14,-1.01,-0.59,1.17
7.1948418617248535,0.3,-0.97,0.45,1.11
7.205225944519043,0.43,0.18,0.41,0.62
7.215027809143066,0.19,0.33,-1.53,1.57
7.225161075592041,0.09,0.17,-1.64,1.65
7.240320920944214,-0.31,0.51,-0.52,0.79
7.244848012924194,0.14,0.24,0.16,0.32
7.254807949066162,0.5,-0.25,0.44,0.71
7.265171051025391,0.62,-0.29,0.31,0.75
7.274922847747803,0.94,-0.12,-0.07,0.95
7.290118932723999,0.98,0.18,-0.6,1.16
7.294126987457275,0.25,0.32,-0.6,0.72
7.30444598197937,-0.49,0.13,-0.32,0.59
7.314589023590088,-1.01,0.06,0.08,1.01
7.324431896209717,-1.1,-0.14,0.34,1.15
7.3391571044921875,-0.62,-0.25,0.42,0.78
7.343966007232666,-0.18,-0.28,0.62,0.7
7.354349136352539,0.1,-0.48,0.43,0.65
7.364283084869385,0.01,-0.57,0.64,0.85
7.374584913253784,-1.34,0.57,0.29,1.48
7.389470100402832,-1.91,1.16,-0.64,2.32
7.394033908843994,-1.38,0.79,-1.07,1.91
7.403888940811157,-0.89,0.24,-0.6,1.09
7.414133071899414,0.03,-0.21,0.82,0.84
7.424142837524414,0.32,-0.22,0.66,0.76
7.439391136169434,0.14,0.25,0.09,0.3
7.4434850215911865,0.34,0.38,-0.11,0.52
7.453710079193115,1.1,-0.09,-0.07,1.1
7.463596820831299,1.48,-0.44,-0.11,1.54
7.473827838897705,1.13,-0.41,-0.28,1.23
7.489452838897705,0.59,-0.07,-0.6,0.84
7.49311900138855,0.0,0.2,-0.6,0.63
7.504654884338379,-0.26,0.28,-0.43,0.57
7.513273000717163,-0.2,0.23,-0.55,0.62
7.523762941360474,-0.05,0.06,-0.51,0.51
7.540043830871582,0.16,-0.1,-0.59,0.61
7.542726039886475,-0.04,-0.26,-0.17,0.31
7.55322790145874,-0.23,-0.3,0.54,0.65
7.563126087188721,-0.39,-0.24,0.92,1.02
7.573001861572266,-0.09,-0.24,0.75,0.79
7.588086128234863,-0.22,-0.09,0.11,0.26
7.5926361083984375,-0.69,0.18,0.01,0.71
7.6026611328125,-0.73,0.22,0.08,0.76
7.613295078277588,-0.47,0.03,-0.22,0.51
7.62271785736084,-0.13,0.02,-0.69,0.7
7.6362690925598145,-0.09,0.12,-0.78,0.79
7.642292022705078,-0.48,0.36,-0.33,0.68
7.652529954910278,-0.48,0.35,0.27,0.65
7.662755966186523,0.0,-0.04,0.42,0.42
7.672758102416992,0.53,-0.56,1.01,1.27
7.687165975570679,0.69,-0.54,1.03,1.35
7.692035913467407,0.37,-0.16,-0.07,0.4
7.702255964279175,-0.21,0.19,-0.47,0.54
7.7122578620910645,-0.38,0.25,-1.3,1.37
7.722751140594482,0.18,-0.24,-0.95,0.99
7.7375288009643555,0.53,-0.51,0.22,0.76
7.7419281005859375,0.59,-0.38,0.52,0.87
7.752032995223999,0.56,-0.13,0.37,0.68
7.762344837188721,0.34,0.17,0.09,0.39
7.772114992141724,0.2,-0.05,-0.22,0.3
7.7863078117370605,0.72,0.02,-0.06,0.72
7.7915849685668945,1.33,-0.36,0.61,1.5
7.802294015884399,0.86,-0.63,-0.18,1.08
7.8118979930877686,-0.51,0.3,-0.32,0.67
7.821810960769653,-0.86,0.12,-0.47,0.98
7.836207866668701,-0.04,-0.17,1.72,1.72
7.841230869293213,-0.26,-0.49,2.52,2.58
7.852097988128662,-0.72,0.1,0.71,1.01
7.861135005950928,-1.63,0.88,-1.03,2.11
7.8720269203186035,-1.43,0.94,-2.03,2.65
7.886699914932251,-0.32,0.53,-0.24,0.66
7.8909149169921875,0.73,-0.32,1.06,1.32
7.90199613571167,1.13,-0.61,0.27,1.31
7.910759925842285,0.23,-0.34,0.22,0.46
7.921190977096558,0.06,-0.06,0.15,0.17
7.935258865356445,-0.24,0.23,0.18,0.37
7.940715789794922,-0.21,0.05,0.14,0.25
7.952354907989502,0.44,-0.38,0.18,0.6
7.961266040802002,0.5,-0.34,-0.3,0.67
7.970848083496094,0.14,-0.2,-0.81,0.84
7.985104084014893,-0.04,-0.22,-0.84,0.86
7.9904680252075195,-0.02,-0.26,-0.16,0.3
8.00189995765686,-0.01,0.02,-0.16,0.16
8.01076602935791,-0.11,0.34,-0.5,0.61
8.02064299583435,-0.12,0.21,-1.04,1.06
8.035444974899292,-0.26,-0.17,-1.25,1.28
8.040090084075928,-0.35,-0.44,-0.63,0.84
8.052143096923828,-0.25,-0.04,-0.31,0.4
8.060338020324707,-0.53,0.39,0.02,0.65
8.070242881774902,-0.91,0.65,0.17,1.13
8.084420919418335,-0.75,0.79,0.38,1.15
8.090235948562622,-0.51,0.56,0.14,0.77
8.101655006408691,-0.29,0.25,1.7,1.74
8.110548973083496,-0.54,0.0,-0.37,0.65
8.11998701095581,-0.45,0.25,-2.15,2.21
8.13440990447998,-0.03,-0.16,-0.19,0.25
8.139616966247559,0.19,-0.34,0.32,0.5
8.152770042419434,0.05,-0.19,0.83,0.85
8.159749031066895,-0.18,0.17,0.34,0.42
8.16983699798584,-0.32,0.47,-0.67,0.87
8.184571981430054,-0.2,0.45,-0.41,0.64
8.1892991065979,0.0,0.48,-0.06,0.48
8.20166802406311,0.01,0.29,0.1,0.3
8.209159851074219,-0.07,0.08,0.1,0.14
8.219881057739258,-0.1,-0.22,0.13,0.27
8.234839916229248,-0.27,-0.34,-0.28,0.51
8.239243030548096,-0.42,-0.19,0.36,0.58
8.251619815826416,-0.42,0.03,0.16,0.45
8.259564876556396,-0.47,0.16,-0.55,0.74
8.269268989562988,-0.13,0.11,-0.04,0.17
8.283694982528687,0.21,-0.28,-0.07,0.35
8.288899898529053,0.45,-0.39,-0.16,0.61
8.302258014678955,0.77,-0.35,-0.01,0.84
8.308816909790039,0.91,-0.18,0.09,0.93
8.319056987762451,0.28,-0.17,-0.26,0.41
8.334045886993408,-0.44,-0.01,-0.31,0.53
8.338400840759277,-0.23,0.24,-0.22,0.39
8.351918935775757,0.06,0.25,-0.03,0.25
8.358357906341553,0.35,0.13,-0.27,0.46
8.369427919387817,0.21,0.0,-0.47,0.51
8.383516788482666,0.13,0.07,-0.59,0.6
8.38846492767334,0.43,0.03,-0.28,0.51
8.401774883270264,0.5,-0.04,0.17,0.52
8.408118963241577,-0.31,0.0,-0.41,0.51
8.419425010681152,-0.92,0.15,-0.17,0.94
8.432807922363281,-0.53,0.11,-0.18,0.57
8.438033103942871,0.01,-0.31,-0.16,0.34
8.448097944259644,-0.07,-0.22,-0.26,0.34
8.458205938339233,-0.28,-0.06,0.03,0.28
8.468316078186035,-0.07,0.02,0.58,0.58
8.482700824737549,0.08,0.11,0.17,0.21
8.487957000732422,0.05,-0.05,0.4,0.4
8.50313401222229,-0.06,-0.05,0.56,0.56
8.50757884979248,-0.33,-0.03,0.11,0.34
8.518774032592773,-0.61,0.39,-0.07,0.72
8.532583951950073,0.04,0.04,0.39,0.39
8.537476062774658,0.21,0.14,0.97,1.0
8.552250862121582,-0.21,0.52,0.27,0.62
8.557101964950562,-0.35,0.76,-0.86,1.19
8.56903600692749,-0.33,1.0,-1.21,1.6
8.583009004592896,-0.12,0.24,-0.61,0.66
8.587360858917236,0.2,-0.46,0.23,0.55
8.602169036865234,0.12,-0.13,0.57,0.59
8.60732102394104,-0.32,-0.01,0.96,1.01
8.61916995048523,-0.29,0.35,0.23,0.5
8.632401943206787,-0.02,0.34,-0.61,0.69
8.6368989944458,0.54,-0.29,-1.2,1.34
8.651870965957642,0.37,-0.94,0.0,1.01
8.656661033630371,0.07,-0.51,-0.31,0.6
8.668123960494995,0.23,-0.3,-0.99,1.05
8.681710004806519,0.11,-0.01,-1.07,1.07
8.686620950698853,0.2,-0.04,-1.33,1.34
8.702032089233398,0.18,-0.32,-0.33,0.49
8.706366062164307,0.14,-0.18,0.23,0.32
8.717936038970947,1.07,0.15,-1.19,1.6
8.731534004211426,1.51,-0.27,-0.95,1.8
8.736647129058838,1.65,-2.03,0.38,2.64
8.752412796020508,0.31,-0.61,0.9,1.13
8.75610899925232,-2.32,1.47,0.61,2.81
8.768094062805176,-1.94,1.62,-0.51,2.57
8.781805038452148,-0.51,1.11,-0.75,1.43
8.786101818084717,0.31,0.05,0.11,0.33
8.803102970123291,0.18,-0.16,0.28,0.36
8.805891036987305,0.02,0.1,-0.25,0.27
8.820554971694946,0.15,0.12,-0.58,0.61
8.83508586883545,0.1,0.13,-0.65,0.67
8.836629867553711,-0.26,0.06,-0.08,0.27
8.852128028869629,-0.39,-0.43,0.41,0.71
8.855628967285156,-0.43,-0.42,0.06,0.6
8.869485855102539,-0.3,-0.22,-0.13,0.39
8.883773803710938,-0.01,-0.14,-0.18,0.22
8.885474920272827,0.16,0.12,-0.44,0.48
8.90184211730957,0.42,0.05,-0.64,0.76
8.90543508529663,0.49,-0.17,-0.17,0.54
8.920328140258789,0.17,-0.06,0.21,0.27
8.934690952301025,0.04,0.17,0.23,0.28
8.93619680404663,1.53,0.65,1.63,2.32
8.952754974365234,2.3,-0.44,2.4,3.35
8.955254077911377,-1.23,-0.46,-3.32,3.57
8.968844890594482,-2.45,0.46,-1.7,3.01
8.98255205154419,-1.44,0.2,0.83,1.67
8.984962940216064,-0.6,-0.11,0.11,0.61
9.002718925476074,-0.13,-0.02,-0.9,0.9
9.004709959030151,0.87,0.1,-0.72,1.13
9.019129991531372,0.88,-0.43,0.27,1.01
9.033107995986938,-0.17,-0.37,1.33,1.39
9.034652948379517,-0.35,0.06,1.13,1.18
9.052867889404297,0.08,0.08,0.39,0.4
9.054513931274414,0.16,-0.14,0.47,0.51
9.069494009017944,-0.22,-0.14,0.44,0.51
9.083130836486816,-0.27,0.26,0.35,0.51
9.084766864776611,0.72,-0.39,-0.71,1.08
9.102219104766846,0.1,0.29,-0.99,1.03
9.104151964187622,-0.15,0.56,-0.94,1.1
9.118908882141113,-0.36,0.13,-0.26,0.46
9.132658004760742,0.1,-0.39,-0.3,0.5
9.134162902832031,0.07,-0.52,-0.17,0.55
9.152508020401001,-0.38,-0.05,0.68,0.78
9.154151916503906,-0.47,0.67,0.0,0.81
9.168968915939331,-0.04,1.01,-2.23,2.44
9.181710958480835,-0.21,0.19,-2.02,2.03
9.183826923370361,-0.62,0.09,-1.05,1.22
9.202379941940308,1.75,0.0,-1.79,2.5
9.203687906265259,-0.55,-1.2,-1.49,1.99
9.218896865844727,-1.57,-1.4,1.28,2.46
9.231760025024414,-0.33,0.07,1.9,1.92
9.233850002288818,-0.15,-0.16,0.85,0.87
9.252835988998413,0.2,0.07,0.7,0.73
9.253987789154053,0.33,0.41,0.93,1.06
9.26968002319336,-0.26,0.87,1.16,1.47
9.284219980239868,-0.1,1.0,1.01,1.42
9.285709857940674,0.3,0.55,0.15,0.64
9.303133010864258,0.27,-0.15,-0.82,0.87
9.304306983947754,0.05,-0.47,-1.33,1.41
9.319580078125,0.84,-0.07,0.21,0.86
9.333395004272461,-0.04,-0.26,-0.7,0.74
9.334950923919678,-0.89,0.04,0.25,0.92
9.35274887084961,-1.04,0.6,0.85,1.47
9.353907108306885,-0.48,0.46,0.27,0.71
9.367800951004028,0.09,-0.28,-0.5,0.58
9.38088607788086,0.29,-0.68,-0.82,1.1
9.384607791900635,0.37,-0.65,-0.51,0.9
9.393196105957031,0.59,-0.27,-0.03,0.64
9.402621984481812,0.6,0.29,0.13,0.67
9.413188934326172,0.27,0.47,-0.14,0.55
9.427653789520264,0.39,0.33,-0.26,0.57
9.432677984237671,0.32,0.18,-0.26,0.44
9.442302942276001,0.12,0.2,0.17,0.28
9.452849864959717,-0.09,0.35,0.26,0.44
9.462721824645996,-0.33,0.47,-0.13,0.58
9.47841501235962,-0.49,0.21,-0.45,0.69
9.482255935668945,0.05,-0.32,-0.43,0.53
9.492058992385864,0.19,-0.86,-0.44,0.98
9.502686023712158,-0.29,-0.92,-0.39,1.04
9.512350082397461,-0.35,-0.35,-0.02,0.49
9.52816891670227,-0.4,0.04,0.15,0.42
9.531825065612793,-0.68,0.44,0.41,0.9
9.542510986328125,-0.16,0.75,0.24,0.8
9.552304983139038,-0.32,0.78,-0.18,0.86
9.562387943267822,-0.7,0.46,-0.29,0.88
9.577311038970947,-0.15,-0.02,-0.61,0.62
9.581897020339966,-0.04,-0.26,-0.9,0.93
9.591804027557373,0.21,-0.53,-0.69,0.89
9.602305889129639,1.04,0.02,0.19,1.05
9.61167597770691,1.71,1.12,4.74,5.16
9.627284049987793,0.26,-0.76,-0.07,0.8
9.63117790222168,0.32,-0.17,-2.81,2.83
9.641650915145874,0.15,-0.6,-2.1,2.18
9.65202808380127,-1.03,-0.24,0.41,1.13
9.6615469455719,-0.94,-0.54,1.08,1.53
9.676968097686768,0.04,-0.64,0.19,0.66
9.680968999862671,-0.4,0.0,0.17,0.43
9.69157600402832,-1.04,1.08,0.74,1.67
9.701596021652222,-0.97,0.96,0.36,1.41
9.711549997329712,-0.51,0.65,0.32,0.88
9.727531909942627,-0.28,-0.18,0.36,0.49
9.730690002441406,-0.22,-0.44,-0.04,0.49
9.741091966629028,-0.19,-0.5,-0.63,0.82
9.751097917556763,-0.39,-0.04,-0.38,0.54
9.76071310043335,-0.64,0.1,0.09,0.65
9.775463104248047,0.38,0.41,0.63,0.84
9.780465126037598,0.89,-0.26,-1.62,1.86
9.790727138519287,-0.09,-0.1,-0.12,0.18
9.801515102386475,0.34,-0.15,0.79,0.87
9.810353994369507,0.4,-0.21,0.24,0.51
9.825663089752197,1.06,0.32,1.12,1.57
9.830207824707031,1.35,-0.05,1.97,2.38
9.840627908706665,-0.1,-0.55,-0.73,0.91
9.8504159450531,-0.9,0.48,-2.24,2.46
9.860503911972046,-0.42,1.34,-2.38,2.76
9.876022815704346,0.63,0.24,-0.73,0.99
9.879910945892334,-0.72,-0.47,2.12,2.28
9.890060901641846,0.2,-0.61,-0.25,0.68
9.899946928024292,-1.12,-0.61,-0.03,1.27
9.910131931304932,-0.46,-0.02,0.43,0.63
9.926188945770264,0.11,0.24,-0.68,0.72
9.929781913757324,0.4,0.28,-0.38,0.61
9.940032958984375,0.44,0.43,-0.57,0.83
9.949816942214966,0.98,-0.05,-0.59,1.14
9.959648132324219,0.9,0.02,0.64,1.1
9.974968910217285,0.13,0.37,0.25,0.46
9.979334831237793,0.34,0.31,-0.01,0.46
9.989388942718506,1.97,0.8,2.24,3.08
9.999444961547852,3.0,-0.06,2.17,3.7
10.009416103363037,2.35,-0.63,-0.65,2.51
10.024420022964478,0.45,-1.1,-2.22,2.51
10.029069900512695,-1.32,-0.65,-1.4,2.03
10.03923511505127,-1.68,0.27,-0.65,1.82
10.04909086227417,-1.15,0.82,-1.4,1.98
10.059596061706543,-0.66,-0.4,0.5,0.91
10.074268817901611,-0.75,-1.2,2.71,3.05
10.079124927520752,-0.33,-1.08,2.46,2.7
10.088876008987427,0.01,-0.28,0.53,0.59
10.099382877349854,0.18,0.26,-0.72,0.78
10.10890793800354,-0.3,0.76,-1.42,1.63
10.124681949615479,-0.61,0.44,-1.8,1.95
10.128443002700806,-0.24,-0.19,-1.45,1.48
10.13864803314209,0.11,-0.45,-0.7,0.83
10.148634910583496,0.3,-0.36,-1.0,1.1
10.158976078033447,0.33,-0.25,-0.22,0.46
10.175786972045898,0.51,-0.06,0.83,0.97
10.178180932998657,0.5,0.09,0.95,1.07
10.188602924346924,0.72,-0.03,0.62,0.95
10.198218822479248,0.51,-0.17,-0.38,0.65
10.208923816680908,0.17,-0.01,-0.94,0.95
10.224845886230469,0.27,0.32,-1.05,1.13
10.22781491279602,0.21,0.43,-0.63,0.79
10.237986087799072,0.47,0.3,0.49,0.74
10.248046875,0.85,-0.02,1.0,1.31
10.258479118347168,1.04,-0.25,1.02,1.47
10.274627923965454,-0.26,-0.3,1.12,1.18
10.277897834777832,-1.45,-0.56,0.11,1.55
10.287678003311157,-1.19,-0.05,0.55,1.31
10.298038005828857,-0.52,0.47,-0.76,1.03
10.308128833770752,-0.02,0.07,-1.42,1.42
10.323969841003418,0.03,-0.24,1.21,1.23
10.327408790588379,-1.42,0.71,-0.17,1.59
10.337480068206787,-1.57,0.5,-1.51,2.23
10.347712993621826,-0.57,0.02,-0.14,0.58
10.357863903045654,-0.09,0.35,-0.26,0.44
10.374145984649658,-0.15,0.54,-0.88,1.04
10.37724781036377,-0.38,0.42,-0.78,0.96
10.387314796447754,0.11,-0.09,-0.16,0.21
10.397470951080322,0.71,-0.4,0.16,0.83
10.407851934432983,0.42,0.07,0.06,0.42
10.423099040985107,-0.03,0.43,-0.2,0.47
10.427174091339111,-0.59,0.55,-0.86,1.17
10.437184810638428,-1.01,0.27,-1.16,1.56
10.446954011917114,-0.66,-0.1,0.06,0.67
10.457283020019531,0.16,-0.82,0.32,0.89
10.473373889923096,0.37,-0.57,-0.09,0.68
10.476589918136597,0.72,0.0,1.5,1.66
10.4877347946167,1.01,-0.21,0.56,1.17
10.49686598777771,0.34,0.07,-0.58,0.67
10.506842136383057,0.07,0.53,-0.69,0.87
10.521301984786987,-0.22,0.14,-0.24,0.35
10.526228904724121,-1.66,0.26,-0.4,1.72
10.53676700592041,-1.59,0.35,0.59,1.73
10.546445846557617,-0.08,-1.11,-0.53,1.23
10.556612968444824,-0.13,-0.52,-0.18,0.56
10.570611953735352,0.92,-0.55,-0.26,1.1
10.5762038230896,1.29,-0.13,1.05,1.66
10.587059020996094,0.2,-0.49,-0.53,0.74
10.596287965774536,-0.36,-0.3,-0.75,0.88
10.606406927108765,-1.31,0.14,-1.2,1.78
10.622589111328125,-0.91,1.09,-0.73,1.59
10.625884056091309,-0.2,0.54,0.61,0.83
10.63723087310791,-0.01,-0.35,0.61,0.7
10.646158933639526,0.69,-0.61,0.08,0.92
10.65589714050293,1.04,-0.56,-1.53,1.93
10.669774055480957,1.05,-0.04,-1.72,2.01
10.675529956817627,1.18,0.18,-1.61,2.0
10.686779975891113,0.94,0.05,-1.18,1.5
10.695709943771362,0.6,-0.18,-0.56,0.84
10.705516815185547,0.52,-0.91,-0.9,1.38
10.719332933425903,0.57,-0.15,-0.14,0.6
10.7253999710083,-0.76,1.11,2.0,2.41
10.736800909042358,-2.2,0.8,2.09,3.13
10.745387077331543,-1.83,0.04,2.63,3.2
10.755470991134644,-0.73,0.05,1.79,1.93
10.770493030548096,0.12,-0.01,-0.16,0.2
10.775289058685303,0.31,0.01,-0.32,0.44
10.787647008895874,0.12,0.08,0.31,0.34
10.795167922973633,-0.21,0.0,0.61,0.64
10.804888010025024,-0.31,-0.48,0.02,0.57
10.820079803466797,0.61,-0.38,-0.1,0.72
10.824813842773438,0.66,-0.53,-0.58,1.02
10.83705997467041,0.74,-0.59,-0.8,1.23
10.845071792602539,0.24,-0.58,-0.45,0.77
10.854794025421143,-0.29,-0.17,-0.2,0.39
10.869837999343872,0.32,0.14,0.37,0.5
10.87450885772705,0.59,0.0,-0.03,0.59
10.886818885803223,0.1,-0.11,-1.76,1.76
10.894287109375,-0.24,0.0,-2.22,2.23
10.904546022415161,-0.36,-0.24,-1.81,1.86
10.920310974121094,-0.71,-0.27,-1.24,1.45
10.924127101898193,-0.72,0.03,-0.57,0.91
10.937174797058105,-0.35,0.22,-0.18,0.45
10.944000959396362,-0.14,0.37,-0.58,0.7
10.954316139221191,0.29,0.48,-1.01,1.15
10.968555927276611,0.75,0.28,-1.86,2.02
10.974272012710571,0.42,-0.16,-2.5,2.54
10.988444805145264,0.02,-0.5,-0.91,1.03
10.994079113006592,0.23,-1.31,2.11,2.49
11.003657817840576,0.56,-1.1,1.65,2.06
11.018324851989746,-0.25,0.08,-0.31,0.4
11.023685932159424,-2.69,1.4,-1.93,3.59
11.038013935089111,-4.82,2.09,-2.82,5.96
11.043502807617188,-3.75,2.54,-3.61,5.79
11.053623914718628,-2.81,1.94,-4.29,5.48
11.067955017089844,-1.96,0.49,-3.03,3.64
11.073434829711914,-0.69,-1.01,-1.98,2.32
11.086731910705566,-0.57,-1.34,-1.48,2.07
11.093240022659302,-0.56,-1.19,0.41,1.37
11.104018926620483,-0.91,-1.17,0.28,1.5
11.119107007980347,-1.87,-1.63,0.51,2.53
11.12319278717041,-1.23,-2.25,0.12,2.56
11.137507915496826,0.5,-2.77,0.13,2.81
11.142888069152832,1.88,-2.84,1.05,3.56
11.153895854949951,3.85,-3.26,4.58,6.81
11.16838788986206,4.62,-2.85,7.06,8.9
11.17289400100708,3.31,-1.82,5.43,6.61
11.18684196472168,2.28,-1.21,2.34,3.48
11.192965984344482,1.47,-1.09,0.91,2.04
11.203493118286133,0.63,-0.92,0.09,1.11
11.217677116394043,-0.21,-0.27,-0.92,0.98
11.222495079040527,-0.13,0.38,-1.18,1.24
11.237360954284668,-0.04,0.26,-0.66,0.71
11.242366790771484,-0.23,1.78,0.08,1.79
11.253519058227539,0.47,6.0,-0.1,6.01
11.267676830291748,-0.56,4.37,-0.72,4.46
11.272142887115479,-1.02,1.76,-0.84,2.2
11.287266969680786,-0.12,0.86,-1.16,1.44
11.292091846466064,0.06,-0.79,-1.16,1.4
11.30310583114624,0.07,-0.66,-0.65,0.92
11.317966938018799,1.34,0.46,-0.48,1.49
11.322091102600098,1.79,-0.38,-1.7,2.49
11.337386131286621,1.68,-0.56,-2.11,2.75
11.34221601486206,1.17,-0.23,-2.19,2.49
11.353981971740723,-0.14,0.29,-0.76,0.82
11.368104934692383,-1.01,0.6,0.67,1.35
11.37157678604126,-1.37,0.7,2.08,2.58
11.387250900268555,-0.98,0.86,2.8,3.08
11.391418933868408,-0.69,0.86,2.9,3.1
11.402132034301758,-0.72,0.48,2.74,2.87
11.416546821594238,-0.71,0.24,2.17,2.29
11.421374797821045,-0.83,0.06,1.28,1.52
11.438953876495361,-0.63,-0.16,0.05,0.65
11.441191911697388,-0.29,-0.15,-0.9,0.95
11.452808856964111,-0.64,0.04,-0.98,1.17
11.46781301498413,-0.85,0.68,-0.74,1.31
11.4717698097229,0.31,-0.55,-1.06,1.23
11.487644910812378,0.74,-1.18,-0.81,1.61
11.490957021713257,-0.29,-0.4,0.19,0.52
11.503722906112671,-0.99,0.55,0.79,1.38
11.518611907958984,-0.86,0.63,0.88,1.38
11.520640850067139,-0.62,0.15,0.51,0.81
11.538137912750244,-0.53,-0.03,0.03,0.53
11.54088306427002,-0.47,-0.37,-0.17,0.62
11.553927898406982,-0.02,-0.25,-0.15,0.29
11.56866979598999,0.37,-0.07,-0.03,0.37
11.570461988449097,0.55,0.08,-0.15,0.57
11.58759880065918,0.35,0.57,-0.27,0.72
11.59044885635376,0.25,0.58,-0.45,0.77
11.60337781906128,0.31,0.1,-0.64,0.71
11.618268966674805,0.55,-0.69,-0.81,1.19
11.620104789733887,0.46,-2.76,-0.64,2.87
11.636932849884033,0.33,-1.04,-0.03,1.09
11.640060901641846,-0.18,1.68,-0.03,1.68
11.652020931243896,-1.12,2.34,-0.19,2.6
11.666399002075195,-0.64,1.19,-0.05,1.35
11.67034387588501,-0.12,-0.24,0.26,0.37
11.687137126922607,-0.14,-1.18,0.3,1.22
11.690032958984375,-0.56,-0.8,0.44,1.07
11.703678131103516,-1.03,0.48,0.4,1.2
11.718037128448486,-0.92,0.67,-0.04,1.13
11.71968698501587,-0.76,-0.07,-0.03,0.76
11.73723292350769,-0.64,-0.38,0.23,0.77
11.739414930343628,-0.7,-0.48,0.43,0.95
11.752583026885986,-0.76,-0.25,0.51,0.94
11.76678991317749,-0.58,0.21,0.52,0.8
11.769320011138916,-0.44,0.46,0.37,0.73
11.787784099578857,-0.08,0.1,-0.16,0.2
11.789298057556152,0.49,-0.35,-0.46,0.75
11.80269193649292,0.87,-0.68,-0.69,1.3
11.817047119140625,1.1,-0.86,-0.6,1.51
11.819128036499023,1.62,-0.68,-0.16,1.76
11.837485790252686,0.68,-0.23,0.18,0.74
11.838911056518555,-0.08,0.22,0.03,0.23
11.85288381576538,-0.48,0.1,-0.49,0.69
11.867110013961792,-0.64,0.09,-0.61,0.88
11.868892908096313,-0.31,0.34,-0.4,0.6
11.886749982833862,0.04,0.36,-0.19,0.4
11.888581991195679,0.33,0.6,-0.01,0.68
11.901787996292114,0.81,0.84,0.1,1.17
11.915488004684448,0.91,0.17,-0.2,0.94
11.918967008590698,1.03,0.95,-0.58,1.51
11.929013967514038,1.01,2.29,-0.95,2.67
11.938594818115234,0.35,2.12,-1.04,2.38
11.948879957199097,-0.49,1.19,-0.29,1.31
11.962386131286621,-0.65,0.2,0.67,0.95
11.968344926834106,-0.9,-0.73,1.3,1.74
11.978478908538818,-1.14,-1.45,1.58,2.42
11.988662958145142,-0.84,-1.86,0.99,2.26
11.99822998046875,0.6,-2.54,-1.35,2.93
12.012542963027954,2.71,-4.89,-3.76,6.73
12.018423080444336,2.91,-3.76,-4.07,6.25
12.028263092041016,1.35,-1.17,-3.22,3.68
12.03883409500122,0.42,2.17,-0.85,2.36
12.047765970230103,0.31,4.83,1.01,4.94
12.062278985977173,0.78,4.26,0.76,4.39
12.0677809715271,0.66,1.52,-0.45,1.71
12.077852964401245,0.05,-0.31,-0.96,1.01
12.088109016418457,0.23,-0.77,-1.01,1.29
12.097839832305908,0.52,-0.55,-1.07,1.31
12.112602949142456,0.68,-0.61,-1.18,1.49
12.11748194694519,1.15,-1.29,-1.22,2.11
12.12791395187378,1.3,-1.15,-1.01,2.0
12.13777494430542,1.04,0.15,-0.53,1.17
12.147871017456055,0.76,2.08,-0.19,2.22
12.162620067596436,-0.71,6.25,0.26,6.29
12.167527914047241,-0.43,6.69,-0.78,6.74
12.177470922470093,-0.34,1.23,-1.91,2.29
12.187458038330078,-1.07,-3.37,-1.47,3.82
12.197293996810913,0.06,-4.38,3.59,5.66
12.212227821350098,-0.43,-4.42,6.75,8.07
12.216930866241455,-1.11,-2.09,-0.74,2.47
12.226907014846802,0.24,0.27,-3.23,3.25
12.237318992614746,-0.09,1.29,-0.5,1.38
12.24700403213501,-2.1,1.06,2.22,3.23
12.261888980865479,-1.88,0.23,2.55,3.17
12.266855955123901,-1.27,-0.11,-0.15,1.28
12.277206897735596,-0.73,0.07,-0.6,0.94
12.287071943283081,-0.09,-0.08,0.1,0.15
12.296518802642822,0.18,-0.34,-0.03,0.38
12.311522006988525,0.16,0.05,-0.7,0.71
12.316438913345337,0.48,0.65,-1.0,1.28
12.326589107513428,0.26,-1.38,-1.03,1.74
12.336740970611572,-1.03,-2.69,0.02,2.88
12.346394062042236,-0.66,1.74,0.21,1.87
12.361598014831543,0.14,-1.4,-1.69,2.19
12.366349935531616,0.48,-6.53,-1.33,6.68
12.376104831695557,0.25,-1.22,-0.09,1.24
12.386794090270996,0.35,3.49,-1.19,3.7
12.396178960800171,2.24,6.0,-0.83,6.45
12.411223888397217,4.77,3.75,0.17,6.06
12.416116952896118,3.57,-0.28,0.75,3.65
12.426137924194336,-0.23,-1.83,1.66,2.48
12.435992002487183,-2.22,-0.36,1.22,2.55
12.445840835571289,-2.33,-0.21,0.28,2.35
12.461283922195435,-3.08,0.69,0.8,3.25
12.465605020523071,-1.75,-0.15,0.26,1.77
12.476292133331299,-0.42,0.05,-0.24,0.48
12.485613822937012,-0.36,0.67,0.09,0.76
12.495500087738037,-0.68,-0.54,0.54,1.02
12.510890007019043,-0.94,0.27,0.18,0.99
12.516057968139648,-1.02,-0.86,-0.11,1.33
12.525574922561646,-0.75,-0.7,-0.91,1.37
12.535387992858887,0.1,0.39,-0.78,0.87
12.545400142669678,0.04,-0.11,0.41,0.42
12.5609130859375,-0.79,0.0,0.68,1.04
12.564929008483887,-0.92,0.42,-0.19,1.02
12.575336933135986,0.27,-0.03,-1.0,1.03
12.585438013076782,0.61,-0.47,-1.19,1.41
12.594738006591797,1.28,-0.49,-1.51,2.03
12.61047101020813,1.38,0.26,-0.51,1.49
12.614522933959961,0.24,0.32,0.99,1.06
12.62506103515625,-1.8,0.71,1.76,2.61
12.634804010391235,-1.28,0.54,2.17,2.57
12.644877910614014,-0.2,-0.21,0.38,0.47
12.660667896270752,1.08,-1.44,-5.28,5.57
12.664358139038086,3.54,-1.01,-4.44,5.76
12.67481279373169,2.46,1.87,2.2,3.79
12.684463024139404,-1.17,1.29,3.76,4.14
12.694718837738037,-0.62,-0.34,-1.08,1.29
12.710672855377197,-0.39,0.14,-1.35,1.41
12.714287996292114,0.15,-0.38,-1.22,1.28
12.724301815032959,0.63,-0.1,-0.53,0.82
12.734180927276611,0.21,0.22,0.21,0.36
12.744303941726685,-1.06,0.47,0.56,1.28
12.760343074798584,-1.13,0.55,0.54,1.36
12.7637038230896,-0.39,0.07,0.07,0.4
12.774126052856445,0.04,-0.01,-0.55,0.55
12.784257888793945,0.17,0.05,-0.54,0.56
12.793914794921875,0.25,0.16,-0.41,0.5
12.809585094451904,0.26,0.13,-0.2,0.35
12.813493013381958,0.06,-0.08,0.0,0.1
12.824005126953125,0.05,-0.18,-0.33,0.37
12.833592891693115,0.33,-0.03,-0.33,0.46
12.843843936920166,-0.06,-0.09,-0.22,0.24
12.859768867492676,-0.69,0.18,0.1,0.72
12.863133907318115,0.07,0.31,-0.2,0.37
12.873458862304688,0.02,0.03,0.05,0.06
12.883355140686035,0.56,-0.13,-0.08,0.58
12.893496036529541,0.93,-0.28,-0.18,0.98
12.909096002578735,0.65,-0.02,-0.28,0.7
12.913136005401611,-0.1,0.4,0.35,0.54
12.923060894012451,-0.72,0.03,0.13,0.73
12.933264017105103,-1.01,-0.05,0.47,1.11
12.94319486618042,-0.81,0.04,-0.26,0.85
12.958418846130371,-0.43,-0.12,-0.64,0.78
12.962760925292969,0.14,-0.7,-0.99,1.22
12.972733974456787,0.22,-0.38,0.09,0.44
12.982737064361572,0.74,0.25,0.64,1.0
12.99294400215149,0.91,0.5,0.32,1.08
13.008672952651978,0.57,0.09,-0.21,0.61
13.012677907943726,0.09,-0.27,-0.31,0.42
13.022889137268066,-0.13,-0.13,-0.13,0.22
13.032508850097656,-0.01,-0.03,0.06,0.06
13.043190002441406,0.13,-0.05,0.02,0.14
13.059133052825928,0.09,-0.11,-0.08,0.16
13.062137126922607,-0.02,-0.18,-0.12,0.21
13.07234811782837,-0.01,-0.1,-0.1,0.14
13.082250118255615,-0.08,-0.06,-0.02,0.1
13.092550992965698,-0.03,-0.09,-0.03,0.09
13.107435941696167,-0.02,-0.14,-0.08,0.16
13.112030982971191,-0.1,-0.14,-0.03,0.17
13.122843980789185,-0.17,-0.1,-0.01,0.19
13.132308006286621,-0.08,-0.09,-0.14,0.18
13.142022132873535,-0.24,-0.23,0.16,0.36
13.15688180923462,-0.22,-0.08,-0.11,0.25
13.1616849899292,-0.13,-0.05,-0.02,0.14
13.171801090240479,-0.12,-0.14,-0.12,0.22
13.181818008422852,-0.2,-0.01,-0.05,0.2
13.191911935806274,-0.31,-0.04,-0.06,0.31
13.207069873809814,-0.27,0.03,-0.14,0.3
13.211381912231445,-0.28,0.0,-0.19,0.33
13.2218599319458,-0.4,-0.04,0.02,0.4
13.23152208328247,-0.26,0.09,-0.23,0.35
13.241890907287598,-0.02,0.09,-0.15,0.17
13.257420063018799,0.58,0.6,-0.82,1.16
13.261248111724854,0.96,0.52,-1.42,1.79
13.271760940551758,0.65,-0.36,0.07,0.74
13.28124189376831,-0.08,-0.03,1.12,1.12
13.291115999221802,-0.45,0.61,0.8,1.1
13.306129932403564,-0.38,0.61,-0.45,0.84
13.310597896575928,-0.74,0.39,-1.28,1.52
13.321963787078857,-2.02,0.76,-1.77,2.79
13.331182956695557,-3.52,0.6,-1.68,3.94
13.340768814086914,-3.77,-0.14,0.11,3.77
13.355364799499512,-3.36,-0.26,1.45,3.66
13.360544919967651,-2.03,0.61,1.9,2.84
13.371882915496826,-0.66,1.81,0.1,1.92
13.380711078643799,0.36,1.6,-1.51,2.22
13.390645980834961,-0.04,0.89,-2.43,2.58
13.40630292892456,-0.94,0.14,-2.08,2.28
13.410383939743042,-1.54,-0.32,-0.69,1.71
13.421763896942139,-2.01,-0.09,0.42,2.05
13.430413007736206,-1.79,0.66,0.96,2.13
13.440567016601562,-1.01,1.56,0.09,1.86
13.455506801605225,-0.81,1.76,-0.62,2.03
13.460464000701904,-1.15,1.27,-1.01,1.98
13.472129821777344,-1.46,0.71,-1.11,1.96
13.48012399673462,-1.35,0.22,-0.91,1.64
13.490351915359497,-0.8,0.26,-0.55,1.0
13.505578994750977,-0.57,0.77,-0.24,0.98
13.509585857391357,-0.77,0.78,0.16,1.1
13.522207975387573,-1.14,0.19,0.03,1.15
13.529797077178955,-1.55,-0.18,-0.54,1.65
13.539674997329712,-1.54,-0.22,-0.88,1.78
13.55451488494873,-1.13,-0.23,-0.67,1.33
13.559473037719727,-0.71,-0.24,0.01,0.74
13.571316957473755,-0.39,-0.16,0.17,0.45
13.579636096954346,-0.27,0.08,-0.06,0.28
13.589734077453613,-0.34,0.0,-0.15,0.37
13.604609966278076,-0.34,-0.2,-0.23,0.45
13.609171867370605,-0.53,-0.43,-0.46,0.82
13.622041940689087,-0.58,-0.6,-0.32,0.89
13.629303932189941,-0.57,-0.59,-0.1,0.82
13.639209985733032,-0.51,-0.47,0.18,0.71
13.653748035430908,-0.25,-0.37,0.29,0.53
13.658865928649902,0.04,-0.37,0.13,0.39
13.67114782333374,0.1,-0.45,-0.3,0.55
13.679336071014404,0.15,-0.6,-0.28,0.67
13.68887186050415,0.36,-0.8,-0.44,0.98
13.70363712310791,0.12,-1.0,-0.53,1.13
13.708688974380493,0.14,-0.97,-0.36,1.04
13.72168493270874,0.07,-0.46,-0.45,0.64
13.728439807891846,-0.1,-0.2,0.05,0.22
13.738704919815063,0.07,-0.24,0.34,0.42
13.75383186340332,0.38,-0.09,0.07,0.39
13.758278846740723,0.39,0.1,0.25,0.47
13.771347999572754,0.37,0.8,0.63,1.08
13.778198003768921,1.05,0.34,-0.08,1.1
13.788747787475586,2.0,-0.37,-0.93,2.23
13.803704023361206,2.1,0.14,-0.88,2.28
13.808199882507324,1.74,0.69,-0.7,1.99
13.82111406326294,1.82,0.8,-0.58,2.07
13.828197956085205,1.96,0.92,-0.09,2.16
13.838243961334229,2.28,0.72,0.05,2.39
13.852741003036499,2.48,0.58,-0.26,2.56
13.857903957366943,2.04,1.13,-0.24,2.34
13.871555805206299,1.93,1.31,-0.24,2.34
13.87770700454712,1.98,0.94,-0.07,2.19
13.888000965118408,1.79,0.96,-0.04,2.03
13.902598857879639,1.54,0.73,-0.75,1.86
13.907408952713013,1.5,-1.05,-2.33,2.96
13.921194076538086,1.38,-2.37,-2.93,4.01
13.927308082580566,1.45,-2.5,-2.49,3.81
13.938381910324097,1.77,-1.54,-1.75,2.92
13.953037023544312,1.88,-0.07,-0.51,1.94
13.95713496208191,1.96,1.15,0.53,2.33
13.970810890197754,1.97,1.18,0.13,2.3
13.977126121520996,1.83,0.94,-0.17,2.06
13.98812484741211,1.51,0.17,-0.95,1.79
14.002316951751709,0.72,-0.59,-1.19,1.51
14.006967067718506,-0.36,0.63,0.2,0.75
14.021958827972412,-0.01,-0.01,-0.03,0.03
14.027115821838379,-0.32,-0.15,-0.31,0.47
14.038357019424438,-0.05,0.11,0.39,0.4
14.052623987197876,-0.17,0.76,-0.21,0.8
14.056754112243652,-0.07,0.83,-0.91,1.23
14.071429967880249,0.28,0.2,-1.05,1.1
14.076582908630371,0.39,-0.09,-1.17,1.23
14.088478088378906,0.42,0.13,-0.66,0.79
14.102717876434326,0.4,0.66,-0.4,0.86
14.10628890991211,0.35,0.77,-0.42,0.94
14.12107801437378,0.39,0.54,-0.56,0.87
14.126328945159912,0.2,0.16,-0.7,0.74
14.138602018356323,-0.27,-0.01,-0.55,0.61
14.152976036071777,-0.6,-0.13,-0.41,0.73
14.156351089477539,-1.1,-0.07,-0.18,1.11
14.173180103302002,-1.48,-0.09,0.17,1.49
14.176352977752686,-1.61,0.2,-0.19,1.63
14.18801212310791,-1.7,-0.04,0.0,1.7
14.202402114868164,-1.77,-0.63,0.71,2.0
14.205925941467285,-1.61,-1.22,0.83,2.18
14.221856117248535,-1.74,-1.51,0.93,2.48
14.22564697265625,-1.84,-1.88,0.82,2.75
14.235873937606812,-1.76,-2.62,0.4,3.18
14.25012493133545,-1.68,-3.18,0.03,3.59
14.255511999130249,-1.69,-2.68,-0.05,3.16
14.272915840148926,-1.55,-1.41,0.15,2.1
14.27534008026123,-1.54,-0.93,0.66,1.91
14.288129806518555,-1.37,0.14,1.12,1.77
14.302386999130249,-0.92,1.17,1.79,2.32
14.30553388595581,-0.82,2.17,1.88,2.98
14.321851015090942,-0.42,2.2,0.95,2.43
14.325109004974365,0.07,1.04,0.06,1.04
14.337430953979492,1.38,-0.14,-0.54,1.48
14.352232933044434,2.53,-0.25,-1.16,2.79
14.354977130889893,3.06,-0.06,-1.69,3.49
14.369853019714355,3.33,0.23,-1.26,3.56
14.374844074249268,3.1,0.65,-1.07,3.34
14.389089107513428,1.8,0.09,-1.16,2.14
14.403865814208984,1.2,-0.53,-1.51,2.0
14.405074119567871,1.19,0.02,-1.25,1.72
14.421020030975342,1.23,1.37,-0.1,1.84
14.424657821655273,1.55,2.5,1.44,3.27
14.436347961425781,1.63,2.35,2.0,3.48
14.451298952102661,0.78,-0.02,0.59,0.97
14.454477787017822,0.11,-1.76,-1.35,2.22
14.47163701057434,-0.73,-2.17,-2.9,3.69
14.474339008331299,-1.0,-1.68,-2.9,3.49
14.48701000213623,-1.16,-0.59,-1.84,2.25
14.501579999923706,-1.02,0.63,0.68,1.37
14.504384994506836,-0.95,1.72,3.53,4.04
14.520602941513062,-1.56,0.56,3.42,3.8
14.524324893951416,-2.28,-0.78,1.21,2.69
14.53696894645691,-3.26,-0.58,-1.52,3.64
14.551804065704346,-2.55,-0.36,-1.74,3.1
14.55388593673706,-0.82,-0.18,-0.62,1.04
14.563861846923828,1.19,0.79,1.17,1.84
14.574265003204346,2.21,0.85,1.25,2.67
14.583595991134644,2.77,0.14,-0.11,2.77
14.59809398651123,2.89,-0.33,-1.63,3.33
14.604573011398315,2.27,-0.23,-2.35,3.27
14.613945960998535,1.32,0.07,-1.78,2.21
14.623899936676025,0.74,0.45,-0.41,0.95
14.633857011795044,1.05,0.79,0.19,1.32
14.64880895614624,1.74,0.52,-0.08,1.81
14.65428900718689,1.96,-0.08,-0.82,2.12
14.663326978683472,1.41,-0.04,-1.12,1.8
14.673462867736816,0.48,0.44,-0.79,1.02
14.683236122131348,-0.08,0.96,-0.46,1.06
14.698632955551147,-0.07,0.77,-0.42,0.87
14.703265905380249,0.2,0.13,-0.65,0.69
14.713109016418457,0.18,0.03,-0.81,0.83
14.7236909866333,-0.28,0.61,-0.55,0.86
14.733080863952637,-0.68,0.9,0.14,1.13
14.748641014099121,-0.77,0.64,0.41,1.08
14.752923011779785,-0.63,0.09,0.02,0.63
14.76308798789978,-0.4,-0.42,-0.59,0.82
14.773072957992554,-0.16,-0.46,-0.67,0.82
14.78268814086914,-0.32,-0.04,-0.26,0.41
14.79761791229248,-0.26,-0.06,0.48,0.54
14.802670001983643,-0.07,-0.15,0.46,0.48
14.812367916107178,0.13,-0.48,0.35,0.6
14.822845935821533,0.26,-0.75,0.07,0.79
14.832347869873047,0.26,-0.88,-0.07,0.92
14.84735894203186,0.26,-0.91,0.04,0.94
14.852467060089111,0.37,-0.86,0.3,0.98
14.86227798461914,0.46,-0.46,0.53,0.83
14.872901916503906,0.66,-0.53,1.03,1.33
14.882052898406982,0.88,-0.53,0.79,1.29
14.897388935089111,0.98,-0.86,0.13,1.31
14.901994943618774,0.95,-1.04,-0.47,1.48
14.912109851837158,0.85,-0.78,-0.43,1.23
14.922321796417236,0.77,-0.41,0.22,0.89
14.93189001083374,0.72,-0.12,0.51,0.89
14.947628021240234,0.68,-0.15,0.12,0.7
14.95189380645752,0.48,-0.5,-0.29,0.75
14.961833000183105,0.08,-0.78,-0.3,0.83
14.972033977508545,-0.38,-0.74,0.09,0.83
14.981918811798096,-0.74,-0.61,0.46,1.06
14.997700929641724,-0.85,-0.51,0.51,1.11
15.0017569065094,-0.82,-0.58,0.38,1.07
15.011492013931274,-0.82,-0.71,0.35,1.13
15.021629810333252,-0.98,-0.69,0.43,1.27
15.031351089477539,-1.07,-0.74,0.61,1.43
15.046945095062256,-1.1,-0.76,0.64,1.48
15.051151990890503,-0.91,-0.92,0.76,1.5
15.061548948287964,-0.78,-0.8,0.51,1.22
15.071538925170898,-0.67,-0.76,0.14,1.02
15.08104395866394,-0.53,-0.77,-0.22,0.96
15.095463991165161,-0.52,-0.61,-0.17,0.81
15.100874900817871,-0.47,-0.17,0.39,0.63
15.111207962036133,-0.22,-0.03,0.69,0.72
15.121203899383545,-0.01,-0.21,0.43,0.47
15.130759954452515,-0.02,-0.5,0.04,0.5
15.145526885986328,-0.08,-0.54,-0.2,0.58
15.150588035583496,-0.01,-0.35,-0.35,0.49
15.160826921463013,0.17,-0.25,-0.35,0.46
15.171424865722656,0.3,0.06,-0.1,0.32
15.18044400215149,0.24,0.08,0.25,0.35
15.195396900177002,0.04,0.31,0.27,0.41
15.200496912002563,-0.16,0.11,-0.09,0.21
15.210609912872314,-0.23,-0.22,-0.36,0.48
15.221385955810547,-0.11,-0.68,-0.63,0.93
15.230175018310547,0.09,-0.55,-0.43,0.7
15.245625019073486,0.48,0.04,0.22,0.52
15.250013828277588,0.85,0.29,0.55,1.05
15.260165929794312,0.77,0.11,0.2,0.8
15.270648002624512,0.5,-0.31,-0.35,0.68
15.27985692024231,0.5,-0.59,-0.63,0.99
15.295064926147461,0.72,-0.62,-0.59,1.11
15.29960012435913,0.81,-0.31,-0.33,0.92
15.310106992721558,0.75,-0.04,0.0,0.75
15.320575952529907,0.65,0.02,0.18,0.67
15.329929828643799,0.52,-0.13,0.15,0.55
15.345186948776245,0.28,-0.23,0.0,0.36
15.34945011138916,0.0,-0.21,-0.13,0.24
15.359539031982422,-0.21,-0.02,-0.13,0.24
15.370247840881348,-0.11,0.2,0.0,0.22
15.37957501411438,0.22,0.08,-0.04,0.23
15.39512300491333,0.05,0.08,-0.25,0.26
15.399143934249878,-0.39,-0.06,-0.16,0.42
15.409504890441895,-0.68,0.22,-0.06,0.71
15.419615983963013,-0.82,0.3,0.09,0.87
15.429208993911743,-1.01,0.48,-0.09,1.12
15.445083141326904,-0.97,0.36,-0.38,1.1
15.44887113571167,-0.56,0.62,-0.62,1.04
15.459211826324463,-0.28,0.83,-0.62,1.07
15.46926212310791,-0.3,0.89,-0.48,1.05
15.47901701927185,-0.34,0.8,-0.68,1.1
15.494601964950562,-0.23,0.78,-0.67,1.05
15.498539924621582,-0.02,0.7,-0.45,0.83
15.508682012557983,0.19,0.65,-0.27,0.72
15.518775939941406,0.11,0.15,-0.39,0.43
15.529019832611084,-0.26,0.08,-0.88,0.92
15.544530868530273,-0.44,0.13,-0.35,0.57
15.548604011535645,-0.27,0.29,0.13,0.41
15.558454990386963,-0.09,0.16,0.04,0.18
15.568413972854614,-0.09,-0.14,-0.28,0.32
15.578426837921143,0.06,-0.38,-0.14,0.4
15.594401836395264,0.17,-0.25,0.11,0.32
15.597992897033691,-0.07,-0.07,0.11,0.14
15.608182907104492,-0.27,-0.1,-0.03,0.28
15.618415832519531,-0.05,-0.29,-0.12,0.31
15.627975940704346,0.17,-0.1,-0.18,0.26
15.643271923065186,0.13,0.46,-0.44,0.64
15.647716045379639,0.17,0.9,-0.7,1.15
15.65818190574646,0.38,1.07,-0.74,1.35
15.667792797088623,0.5,0.9,-0.56,1.17
15.678022861480713,0.49,0.38,-0.51,0.8
15.693517923355103,0.61,-0.33,-0.44,0.82
15.697475910186768,0.59,-0.55,-0.35,0.87
15.70767879486084,0.33,-0.08,-0.18,0.38
15.717434883117676,-0.1,0.54,0.01,0.54
15.727939128875732,-0.45,0.5,0.26,0.72
15.743489980697632,-0.31,0.16,-0.02,0.34
15.747452974319458,0.19,-0.05,-0.55,0.58
15.757260799407959,0.49,0.01,-0.7,0.85
15.767444133758545,0.56,0.2,-0.48,0.76
15.777252912521362,0.62,0.34,-0.24,0.74
15.793182849884033,0.53,0.39,-0.24,0.7
15.796957015991211,0.28,0.34,-0.37,0.57
15.807251930236816,0.16,0.24,-0.35,0.45
15.817138910293579,0.16,0.13,-0.31,0.37
15.827166080474854,0.06,0.26,-0.33,0.42
15.84206485748291,0.05,0.39,-0.25,0.46
15.846698999404907,0.25,0.36,-0.22,0.49
15.857208967208862,0.37,0.16,-0.26,0.47
15.866843938827515,0.3,0.02,-0.38,0.48
15.876981019973755,0.12,-0.02,-0.42,0.43
15.892343997955322,-0.28,0.03,-0.3,0.41
15.896533012390137,-0.88,0.11,-0.02,0.88
15.906584978103638,-1.34,0.16,0.13,1.35
15.916703939437866,-1.42,0.09,0.06,1.42
15.926659107208252,-1.26,0.08,0.05,1.26
15.94196605682373,-1.04,0.1,0.09,1.04
15.946160793304443,-0.91,0.16,-0.03,0.92
15.956881046295166,-0.93,0.19,-0.12,0.95
15.96659803390503,-1.01,0.29,-0.19,1.06
15.976420879364014,-1.02,0.33,-0.2,1.09
15.992082118988037,-0.94,0.26,-0.24,1.0
15.995795011520386,-0.66,0.24,-0.3,0.76
16.006904125213623,-0.3,0.35,-0.32,0.56
16.016060829162598,-0.16,0.39,-0.2,0.46
16.0260169506073,-0.02,0.42,-0.12,0.43
16.041557788848877,0.31,0.34,-0.23,0.51
16.045630931854248,0.77,0.23,-0.34,0.87
16.05651593208313,1.26,0.07,-0.57,1.38
16.06569004058838,1.46,-0.04,-0.62,1.58
16.076167106628418,1.13,0.07,-0.51,1.24
16.09192991256714,0.64,0.17,-0.29,0.72
16.09549593925476,0.56,0.22,-0.29,0.66
16.106385946273804,0.76,0.21,-0.37,0.87
16.115488052368164,0.93,0.11,-0.33,0.99
16.125258922576904,0.88,0.15,-0.45,0.99
16.140065908432007,0.67,0.09,-0.51,0.84
16.145129919052124,0.54,0.09,-0.61,0.81
16.155949115753174,0.67,0.12,-0.63,0.92
16.165283918380737,0.89,0.3,-0.52,1.07
16.17518401145935,0.92,0.6,-0.37,1.15
16.190555095672607,0.91,0.74,-0.37,1.22
16.19481897354126,0.99,0.64,-0.54,1.29
16.20662784576416,1.09,0.35,-1.35,1.77
16.214890956878662,1.2,-0.39,-1.99,2.35
16.224756956100464,0.96,1.08,-0.92,1.71
16.23961591720581,0.85,2.68,0.91,2.95
16.24463701248169,2.29,2.74,0.74,3.64
16.256617069244385,2.08,1.55,-2.21,3.4
16.26475691795349,2.86,-3.11,-2.04,4.69
16.274485111236572,1.16,0.16,-4.56,4.7
16.28979206085205,1.78,2.05,-3.39,4.34
16.29457402229309,2.19,0.76,1.99,3.05
16.30666494369507,1.1,2.07,2.33,3.3
16.314696788787842,0.35,2.04,1.58,2.6
16.3243670463562,0.21,-0.96,-0.46,1.08
16.33982491493225,-0.21,-1.7,-2.55,3.07
16.34387493133545,-0.89,-1.52,-2.79,3.29
16.35886812210083,-1.62,0.14,-1.44,2.17
16.363973140716553,-1.78,1.78,0.36,2.54
16.373939990997314,-1.57,2.46,2.09,3.58
16.389216899871826,-1.24,2.6,1.51,3.25
16.39363694190979,-0.56,1.04,-0.23,1.2
16.406945943832397,0.01,-0.62,-1.54,1.66
16.413882970809937,-0.38,-0.69,-1.95,2.1
16.42394495010376,-0.59,-0.43,-1.93,2.06
16.43925905227661,-0.18,0.27,-1.58,1.61
16.443493843078613,0.64,0.6,-1.07,1.38
16.45655107498169,1.19,1.14,-1.06,1.95
16.4637770652771,1.7,1.41,-1.35,2.58
16.47339391708374,1.8,1.51,-1.4,2.73
16.489180088043213,1.59,1.74,-1.46,2.77
16.493212938308716,1.48,2.64,-1.25,3.27
16.50686502456665,2.03,1.56,0.28,2.57
16.51300811767578,2.44,-0.06,1.46,2.84
16.523196935653687,2.19,-0.8,-0.29,2.34
16.5385320186615,1.4,-1.42,-2.13,2.91
16.542860984802246,0.19,-1.33,-2.44,2.78
16.556196928024292,-0.61,-0.94,-0.6,1.27
16.562843799591064,-0.46,0.43,1.93,2.03
16.5733380317688,-0.14,1.99,3.11,3.69
16.588622093200684,0.13,1.64,2.74,3.19
16.592504024505615,0.84,1.63,0.85,2.02
16.606081008911133,1.04,1.4,-1.97,2.63
16.612506866455078,0.32,0.89,-3.66,3.78
16.622878074645996,-0.38,0.4,-5.22,5.24
16.638064861297607,-0.83,0.57,-5.77,5.85
16.642678022384644,-1.44,0.9,-4.49,4.8
16.656726837158203,-1.54,2.1,-1.26,2.89
16.662787914276123,-1.53,4.44,1.78,5.02
16.67286992073059,-1.52,6.58,-0.11,6.75
16.688228130340576,-0.9,5.62,-3.94,6.92
16.691975116729736,0.08,2.17,-5.11,5.55
16.706560134887695,1.28,1.25,-6.33,6.57
16.71187686920166,2.2,1.79,-6.13,6.75
16.723297119140625,1.69,5.86,-4.62,7.65
16.738651990890503,0.61,10.49,-1.22,10.57
16.741843938827515,3.64,7.84,1.84,8.83
16.757596969604492,2.86,0.11,0.84,2.98
16.761716842651367,0.6,-1.69,-2.55,3.11
16.773664951324463,0.71,0.08,-4.93,4.98
16.788701057434082,0.52,2.47,-4.49,5.15
16.791717052459717,0.84,3.78,1.66,4.21
16.806367874145508,1.09,4.15,5.12,6.68
16.81135392189026,0.22,1.64,2.34,2.86
16.823303937911987,-1.0,-1.03,-2.38,2.77
16.838531970977783,-0.94,-1.64,-2.47,3.11
16.841130018234253,-0.34,-0.17,-0.7,0.79
16.855844974517822,0.15,2.44,-2.29,3.34
16.861109972000122,0.87,0.4,-0.09,0.96
16.872488975524902,1.51,-2.66,3.8,4.87
16.887624979019165,1.95,2.18,2.79,4.04
16.89087200164795,1.97,5.77,-3.22,6.89
16.90669298171997,1.35,4.03,-5.1,6.63
16.91083288192749,1.15,-2.39,0.82,2.77
16.92317295074463,1.41,-3.43,3.45,5.06
16.93870782852173,2.01,0.59,-0.79,2.23
16.940600872039795,1.99,0.63,-7.46,7.74
16.9566330909729,0.64,-1.61,-4.98,5.27
16.960565090179443,0.07,-3.32,-0.63,3.37
16.972811937332153,1.41,0.19,3.86,4.11
16.98793601989746,1.64,7.4,5.23,9.2
16.990597009658813,0.53,11.86,-3.04,12.25
17.00763702392578,-0.76,6.43,-9.8,11.74
17.010488986968994,-1.91,-0.65,-6.4,6.71
17.022531986236572,-2.15,-3.27,-2.7,4.75
17.037707805633545,-2.21,-1.53,-2.24,3.49
17.040157794952393,-0.83,2.86,-2.93,4.17
17.056278944015503,-0.39,5.55,1.97,5.9
17.06001591682434,0.33,3.1,4.99,5.88
17.073619842529297,-0.59,2.18,3.51,4.17
17.090441942214966,-0.98,4.16,-3.36,5.43
17.0916428565979,-0.05,2.45,-3.95,4.64
17.10000491142273,0.99,2.67,-2.08,3.52
17.110119819641113,1.74,1.4,-2.95,3.7
17.12030291557312,2.46,-0.01,-3.2,4.03
17.136005878448486,2.4,-1.33,-2.51,3.71
17.139626026153564,2.64,3.07,-3.27,5.2
17.156968116760254,3.47,5.65,-1.87,6.88
17.159432888031006,4.79,2.0,4.05,6.58
17.173256874084473,3.76,-0.08,1.19,3.94
17.18938899040222,2.26,-1.34,-4.69,5.37
17.190462112426758,1.57,-3.19,-3.98,5.33
17.207904815673828,2.65,-4.87,1.28,5.69
17.209394931793213,3.81,-1.31,1.57,4.32
17.222700119018555,3.82,6.83,-3.97,8.77
17.23853302001953,3.87,7.89,-4.68,9.95
17.239825963974,2.18,-2.22,1.29,3.36
17.25708794593811,0.86,-6.77,2.16,7.15
17.258760929107666,-1.71,-4.7,0.12,5.0
17.272730827331543,-2.81,-2.27,-2.66,4.48
17.28827691078186,-2.12,-2.73,-0.09,3.45
17.28948402404785,-0.84,1.37,3.27,3.64
17.306144952774048,0.5,5.18,3.78,6.43
17.30851984024048,2.62,2.86,1.16,4.04
17.323275089263916,1.81,0.94,-3.98,4.47
17.339457988739014,1.05,-3.38,-6.7,7.57
17.34069800376892,0.68,-5.22,-4.96,7.23
17.3577139377594,0.63,-6.56,-3.35,7.39
17.358662128448486,2.35,-7.59,2.36,8.28
17.372199058532715,4.94,-3.26,4.83,7.63
17.38789391517639,5.8,5.66,2.25,8.41
17.389091968536377,5.08,10.31,-2.59,11.78
17.40708589553833,5.32,1.67,-7.15,9.06
17.40804100036621,5.09,-3.98,-5.19,8.28
17.422502040863037,4.15,-7.75,-1.37,8.89
17.437952995300293,5.46,-11.06,5.83,13.64
17.43912100791931,6.49,-7.93,4.08,11.02
17.45660400390625,2.45,-1.31,-2.59,3.79
17.45778799057007,-0.46,2.1,-7.46,7.76
17.473844051361084,-0.61,4.13,0.5,4.2
17.489305019378662,1.61,3.17,5.44,6.49
17.490492820739746,3.24,1.01,6.35,7.2
17.507242918014526,4.17,-5.14,4.49,7.99
17.508203983306885,5.16,-2.26,3.51,6.63
17.52253794670105,3.26,5.72,-0.37,6.59
17.53781795501709,1.01,1.48,-4.48,4.82
17.53909206390381,-0.66,-5.97,0.57,6.03
17.556988954544067,-2.32,-4.06,2.62,5.36
17.557887077331543,-3.89,3.58,0.14,5.28
17.573928833007812,-4.26,9.3,-7.72,12.81
17.589204788208008,-1.13,2.08,-5.84,6.3
17.590399980545044,-0.49,-1.46,-0.42,1.59
17.607162952423096,1.13,0.57,-1.6,2.04
17.608118057250977,1.21,2.99,-2.1,3.84
17.62296485900879,1.96,-0.05,-1.05,2.22
17.63813304901123,0.66,-3.76,-0.23,3.82
17.6393780708313,-0.12,-2.69,1.72,3.19
17.65718412399292,0.82,3.54,0.58,3.67
17.658204078674316,2.18,7.97,-1.38,8.37
17.673534870147705,6.36,2.21,-0.71,6.77
17.688994884490967,5.03,0.75,-4.11,6.53
17.69021987915039,2.59,1.22,-6.97,7.53
17.707211017608643,1.85,-2.49,-1.38,3.39
17.708230018615723,1.87,-3.28,6.85,7.82
17.72351598739624,1.56,0.62,3.57,3.94
17.738500118255615,0.21,0.07,-2.83,2.83
17.739726066589355,-0.46,2.05,-0.98,2.31
17.757072925567627,-0.41,0.11,7.15,7.16
17.75802993774414,0.74,-3.81,11.43,12.07
17.77326798439026,0.85,1.27,2.98,3.34
17.788517951965332,-1.56,7.27,-6.99,10.2
17.789730072021484,-1.35,-1.65,-1.71,2.73
17.80741596221924,-0.55,-5.06,4.48,6.78
17.80838108062744,-1.45,-0.29,-2.68,3.06
17.823830127716064,-2.68,2.06,-7.18,7.93
17.839520931243896,-2.41,-1.88,3.12,4.36
17.84066891670227,-1.4,-2.62,8.93,9.41
17.858577966690063,-0.09,1.11,4.46,4.59
17.859681129455566,1.8,-1.14,-1.01,2.35
17.874538898468018,2.49,-3.36,3.7,5.58
17.890562057495117,2.14,0.97,2.09,3.14
17.89173412322998,0.77,3.72,-10.67,11.32
17.908327102661133,-1.3,-1.17,-9.18,9.34
17.909374952316284,-1.18,-2.7,-2.96,4.17
17.924559116363525,0.62,0.11,-7.17,7.19
17.940048933029175,2.82,3.91,-3.15,5.75
17.941232919692993,5.46,7.84,8.48,12.77
17.957860946655273,13.29,8.69,9.66,18.58
17.958903789520264,7.81,5.92,1.25,9.87
17.974434852600098,4.36,-3.86,-2.18,6.21
17.99014902114868,3.57,-6.35,-2.48,7.69
17.99136209487915,1.8,-0.91,-5.15,5.53
18.00697088241577,4.1,6.95,-12.59,14.95
18.00814199447632,3.56,3.02,-9.71,10.77
18.023605823516846,3.75,0.24,2.22,4.36
18.039155960083008,4.59,2.1,6.88,8.53
18.040404796600342,5.08,7.82,2.0,9.53
18.057065963745117,2.55,9.0,-5.86,11.03
18.05819296836853,1.14,-3.6,-7.81,8.67
18.0738468170166,-0.53,-7.67,-2.88,8.21
18.08932399749756,-0.44,-8.04,7.77,11.18
18.090537071228027,-2.41,-3.44,12.69,13.36
18.107266902923584,-2.07,1.36,7.59,7.98
18.108196020126343,-3.28,9.73,-5.63,11.71
18.123692989349365,-2.15,12.5,-5.48,13.81
18.13877296447754,1.82,-3.02,2.82,4.51
18.140044927597046,2.24,-5.06,0.17,5.53
18.157776832580566,3.15,1.38,-10.93,11.45
18.158740043640137,2.31,-0.63,-9.64,9.93
18.17368197441101,2.06,-8.73,6.6,11.13
18.188812017440796,3.48,-8.74,16.94,19.37
18.189999103546143,6.53,-0.94,14.55,15.97
18.20673179626465,2.04,1.49,-0.19,2.53
18.207858085632324,-7.3,6.49,-12.68,16.0
18.223549842834473,-5.1,-0.56,-8.84,10.22
18.238991022109985,-0.77,-2.91,-5.77,6.5
18.240188121795654,-0.47,-4.78,-1.17,4.94
18.25746202468872,0.03,-5.75,5.09,7.67
18.258450984954834,4.08,-1.22,8.6,9.59
18.273766040802002,2.01,0.71,0.64,2.22
18.289318084716797,0.67,4.11,-9.47,10.34
18.29047393798828,0.67,4.03,-6.92,8.03
18.307562828063965,1.79,-2.25,-1.43,3.21
18.308536052703857,2.19,2.86,-0.17,3.6
18.325890064239502,2.96,8.02,-0.85,8.59
18.3411808013916,9.62,2.81,1.92,10.2
18.342390060424805,5.91,2.18,3.96,7.44
18.356825828552246,1.21,5.89,-2.96,6.7
18.35791301727295,0.68,3.11,-5.98,6.77
18.37381887435913,-0.3,1.89,-5.34,5.67
18.388598918914795,0.37,-4.69,-1.36,4.89
18.38991689682007,-0.75,-6.23,0.93,6.34
18.40726613998413,-1.51,-6.29,6.35,9.06
18.40821099281311,-1.57,-5.95,14.98,16.19
18.423665046691895,1.12,-1.63,15.49,15.61
18.438819885253906,-0.19,0.27,1.48,1.51
18.440091133117676,-3.73,1.36,-2.78,4.84
18.45694899559021,-2.28,5.13,-2.15,6.01
18.45787501335144,-1.54,12.97,-5.31,14.09
18.474262952804565,1.32,3.23,-6.2,7.11
18.489659786224365,2.2,-8.42,0.77,8.73
18.490916967391968,0.85,-8.34,10.19,13.19
18.507344961166382,0.55,-3.91,8.87,9.7
18.508277893066406,1.42,-1.18,-2.81,3.36
18.523512840270996,-1.82,3.7,-16.26,16.77
18.538363933563232,0.74,8.42,-8.07,11.68
18.5396249294281,2.37,1.17,-9.73,10.08
18.557663917541504,-0.81,4.64,-10.67,11.66
18.558598041534424,-1.18,1.98,-3.47,4.16
18.57358980178833,-2.41,-1.31,-6.04,6.63
18.588769912719727,-2.91,1.01,-11.24,11.65
18.589961051940918,-2.98,-1.28,-10.33,10.82
18.60755491256714,-1.47,-7.33,0.52,7.49
18.60860300064087,2.39,-10.77,27.9,30.0
18.624905109405518,0.51,-2.86,50.98,51.06
18.639805793762207,4.73,1.93,7.05,8.7
18.640986919403076,-2.23,0.46,-36.17,36.24
18.658152103424072,-6.22,5.64,-24.31,25.71
18.65908908843994,2.04,5.73,1.8,6.34
18.673383951187134,0.25,-6.66,2.73,7.2
18.68839192390442,-2.2,-4.94,1.14,5.52
18.689631938934326,-1.44,-1.1,0.81,1.98
18.707392930984497,-0.85,0.3,1.23,1.52
18.708301067352295,-2.21,3.8,4.79,6.5
18.72495985031128,-2.1,7.55,4.58,9.07
18.740006923675537,0.16,5.35,-3.9,6.62
18.741281986236572,0.61,-2.43,-3.81,4.55
18.75603699684143,0.15,-5.44,6.11,8.18
18.757113933563232,1.21,-0.66,10.41,10.5
18.773491859436035,1.69,3.53,8.42,9.28
18.789112091064453,3.13,2.37,4.44,5.92
18.790338039398193,4.8,-1.46,-1.52,5.24
18.806519985198975,3.03,-3.76,-4.14,6.36
18.807492971420288,2.31,-0.22,-7.37,7.72
18.823380947113037,0.28,0.53,-10.5,10.51
18.838611125946045,-1.03,2.79,-8.7,9.19
18.839818000793457,-1.82,11.23,-10.33,15.36
18.856886863708496,-2.39,16.92,-1.79,17.18
18.857836961746216,0.26,7.22,11.81,13.84
18.87254285812378,-0.37,-3.49,17.15,17.5
18.887540817260742,-1.57,-5.73,8.79,10.6
18.88873291015625,-0.16,-6.39,-0.59,6.41
18.90677785873413,-0.74,-5.8,-1.92,6.15
18.90778398513794,-1.52,-1.89,-4.0,4.67
18.922785997390747,-0.47,1.97,-5.25,5.62
18.93777084350586,-0.36,4.76,-6.41,7.99
18.93903398513794,-1.29,-2.08,-5.43,5.95
18.957695960998535,-0.72,-8.16,-6.55,10.48
18.9586238861084,0.72,-9.14,-7.82,12.05
18.97240686416626,0.68,-8.44,1.89,8.67
18.987607955932617,1.14,-6.55,15.33,16.7
18.988798141479492,1.34,-0.92,12.59,12.69
19.005938053131104,2.85,-2.73,-2.64,4.74
19.00706195831299,-2.17,4.95,-13.12,14.18
19.022932052612305,-7.48,34.15,-6.67,35.59
19.038363933563232,2.66,29.24,-2.22,29.44
19.03981113433838,6.87,-0.05,0.23,6.87
19.05697202682495,-0.68,-10.54,9.48,14.19
19.05815100669861,-1.57,-8.41,7.41,11.31
19.072432041168213,-4.26,-7.62,-17.41,19.47
19.08773899078369,-3.26,2.07,-14.76,15.25
19.088890075683594,2.66,-0.81,3.82,4.72
19.106422901153564,1.88,-4.93,8.71,10.18
19.107568979263306,1.55,-9.42,7.22,11.96
19.12225580215454,0.23,-4.42,7.61,8.8
19.137635946273804,1.89,-0.7,-1.57,2.55
19.13894295692444,-2.62,11.06,-11.21,15.96
19.14049196243286,0.44,14.21,-7.27,15.96
19.148262977600098,4.46,-1.03,0.01,4.57
19.15882110595703,0.47,-4.49,11.4,12.26
19.17349600791931,0.2,-5.52,19.65,20.41
19.17844796180725,1.33,-0.42,8.96,9.06
19.190661907196045,-2.2,1.11,-4.14,4.81
19.19802713394165,-2.38,-4.54,-4.92,7.1
19.208324909210205,-0.45,-6.45,-1.43,6.62
19.223937034606934,0.64,-4.84,0.27,4.88
19.228222846984863,-0.07,-2.17,-5.12,5.56
19.239094972610474,-1.28,2.84,-9.63,10.12
19.248482942581177,-0.54,5.19,-5.19,7.35
19.257904052734375,-0.93,3.69,0.24,3.81
19.27293109893799,-1.76,7.73,-1.27,8.02
19.277732849121094,-0.21,8.29,-2.4,8.63
19.292212963104248,0.3,0.96,2.36,2.56
19.29762291908264,-0.06,-4.37,4.86,6.53
19.30924892425537,0.09,-6.88,0.3,6.88
19.324400901794434,-0.52,-7.79,-9.95,12.64
19.327364921569824,-1.46,-7.94,-7.07,10.73
19.34084701538086,-0.06,-8.03,0.96,8.08
19.347615957260132,0.93,-5.51,-1.0,5.67
19.3576819896698,0.47,5.44,-6.32,8.35
19.372575998306274,-5.36,31.91,-5.32,32.79
19.377238988876343,5.88,17.38,-2.82,18.56
19.391143798828125,6.21,-9.14,10.04,14.93
19.39692211151123,-1.7,-10.02,21.4,23.69
19.40758490562439,-1.12,-4.1,15.5,16.07
19.423304080963135,-0.22,1.75,-9.05,9.22
19.42680788040161,-1.23,-2.73,-18.98,19.21
19.441162109375,2.18,-6.21,-1.46,6.74
19.446683883666992,3.95,0.24,-0.52,3.99
19.45728898048401,1.76,-0.38,2.09,2.75
19.472567081451416,1.22,-2.86,6.86,7.53
19.476578950881958,1.85,0.12,4.68,5.03
19.491984844207764,-1.58,4.49,2.62,5.43
19.49650001525879,-2.59,9.63,-3.83,10.68
19.507783889770508,-0.93,3.37,-7.95,8.68
19.522916793823242,-2.19,2.03,-6.63,7.27
19.52631402015686,-0.68,-4.64,-1.56,4.94
19.541988849639893,-0.35,-6.5,0.85,6.56
19.546288013458252,2.0,-4.64,-1.68,5.32
19.557421922683716,2.71,1.62,-7.45,8.09
19.57347011566162,3.25,4.1,0.0,5.23
19.576206922531128,4.48,0.69,12.38,13.18
19.59160804748535,1.98,-0.08,14.09,14.22
19.596120834350586,-0.25,2.11,2.57,3.33
19.6071457862854,-1.83,8.76,-12.03,14.99
19.622315883636475,-0.69,0.12,-14.15,14.16
19.625661849975586,-0.91,-3.55,-6.51,7.47
19.64112901687622,-1.14,-4.36,-4.04,6.05
19.64642596244812,-1.05,-5.23,0.74,5.38
19.658234119415283,-0.81,-3.94,7.33,8.36
19.67365789413452,0.85,0.92,8.94,9.02
19.675437927246094,1.39,1.27,2.26,2.94
19.691093921661377,2.4,0.94,-3.54,4.37
19.695398807525635,0.29,6.2,-6.1,8.7
19.70783495903015,-0.68,3.62,-2.1,4.23
19.723264932632446,-1.32,-0.89,0.78,1.77
19.725439071655273,-0.78,2.51,-2.31,3.49
19.742004871368408,0.69,3.34,-8.85,9.48
19.745355129241943,0.38,4.9,-10.31,11.42
19.757320880889893,0.34,-1.16,-6.09,6.2
19.77230191230774,-0.37,-6.45,-1.06,6.54
19.774909019470215,-0.49,-6.79,3.49,7.65
19.79166889190674,0.1,-2.77,13.44,13.72
19.79474687576294,1.58,4.38,15.54,16.22
19.807507038116455,0.1,9.29,7.43,11.89
19.823124885559082,1.07,3.16,-3.02,4.5
19.8247709274292,1.03,-4.86,-9.5,10.72
19.840946912765503,-0.72,-0.74,-12.82,12.86
19.844502925872803,0.04,-4.01,-6.87,7.95
19.857041835784912,-1.19,-3.31,-3.36,4.86
19.872332096099854,-0.86,0.62,-0.41,1.13
19.87462091445923,-0.31,3.45,3.3,4.78
19.89102292060852,-0.6,-2.78,7.15,7.69
19.89464807510376,0.72,-4.97,10.88,11.98
19.908097982406616,2.37,-0.22,7.1,7.48
19.92383599281311,2.7,3.88,-1.89,5.09
19.925076007843018,1.91,4.42,-7.15,8.62
19.941761016845703,0.1,0.77,-8.92,8.95
19.944098949432373,-1.41,0.91,-7.43,7.61
19.95781898498535,-0.81,6.46,0.29,6.51
19.973527908325195,-1.49,8.95,11.58,14.71
19.974751949310303,-0.77,11.19,19.06,22.11
19.991493940353394,2.33,-1.75,1.54,3.29
19.993634939193726,2.09,-8.55,-16.15,18.39
20.007812023162842,-1.22,-6.73,-13.58,15.2
20.023554801940918,-1.03,-2.32,-5.19,5.77
20.024791955947876,0.34,-3.62,0.03,3.63
20.042200088500977,-0.59,0.78,1.47,1.76
20.043743133544922,-0.58,5.21,5.34,7.48
20.05831003189087,-0.85,13.3,9.26,16.22
20.073625087738037,3.72,18.32,5.04,19.36
20.074891090393066,6.68,0.98,-11.14,13.02
20.09115982055664,-0.2,-6.91,-11.01,13.0
20.093073844909668,0.04,-8.36,3.73,9.15
20.10797882080078,1.1,-9.37,20.49,22.55
20.123759984970093,-1.48,-6.7,17.32,18.62
20.12492299079895,0.11,-3.81,-6.92,7.9
20.14165210723877,-3.01,-2.37,-17.69,18.1
20.14295482635498,-2.8,3.77,-4.78,6.7
20.157490968704224,0.85,9.56,0.18,9.59
20.173074960708618,-1.85,8.18,-2.92,8.88
20.174341917037964,0.98,2.68,0.23,2.86
20.183053016662598,2.47,-3.63,-0.86,4.47
20.193058967590332,0.44,-4.88,-1.1,5.02
20.20279884338379,1.17,-5.19,2.42,5.84
20.217571020126343,1.61,-0.14,3.52,3.87
20.223421096801758,1.49,2.39,-8.19,8.66
20.232635021209717,0.07,-5.3,-8.68,10.17
20.243178844451904,-1.09,-4.11,-2.44,4.9
20.252490997314453,-0.1,6.21,-2.76,6.79
20.26832389831543,-1.36,16.27,-0.67,16.34
20.27225399017334,5.51,5.12,6.46,9.91
20.282643795013428,2.27,-8.99,7.52,11.93
20.293610095977783,-0.61,-4.95,1.47,5.19
20.302127838134766,-0.25,4.75,-10.94,11.92
20.3175630569458,-0.13,0.63,-14.15,14.16
20.322062969207764,-0.03,-8.11,2.1,8.37
20.332153797149658,1.01,-8.82,18.33,20.36
20.342407941818237,-0.85,-0.91,21.5,21.53
20.35175609588623,0.54,2.21,5.0,5.49
20.367416858673096,-1.94,6.65,-8.49,10.95
20.371800899505615,-0.73,0.39,-6.04,6.09
20.381595134735107,2.13,3.41,-8.9,9.76
20.39233899116516,0.9,7.08,-10.01,12.29
20.401736974716187,0.31,1.11,-6.84,6.93
20.417359828948975,-0.3,-6.21,-0.95,6.28
20.42140007019043,-0.01,-6.63,6.07,8.98
20.43154001235962,1.9,1.53,15.39,15.58
20.441800117492676,1.06,9.5,3.88,10.31
20.451459884643555,3.47,8.02,-10.61,13.74
20.467000007629395,0.62,-5.89,-7.35,9.43
20.47117805480957,-0.59,-8.16,2.0,8.42
20.48110008239746,-0.77,-5.0,9.38,10.65
20.491719007492065,-0.03,1.0,12.57,12.6
20.501441955566406,-0.63,3.68,2.84,4.69
20.51702308654785,-0.7,1.83,-11.72,11.88
20.521053791046143,-0.93,-5.34,-8.86,10.38
20.531238079071045,-0.8,-6.64,-1.22,6.79
20.54144811630249,-0.73,-2.96,0.33,3.06
20.550835132598877,-0.88,2.01,-3.83,4.41
20.56636691093445,-1.06,6.32,1.88,6.67
20.570596933364868,3.34,1.58,9.01,9.73
20.580535888671875,1.61,-5.21,9.77,11.18
20.591187000274658,2.43,-0.87,3.29,4.18
20.60056495666504,0.86,9.09,-12.49,15.47
20.61621594429016,1.8,10.81,-20.23,23.0
20.62024998664856,3.38,6.77,-9.53,12.16
20.630828857421875,-0.5,-0.42,-3.11,3.17
20.640954971313477,-0.82,-6.98,1.61,7.21
20.65054988861084,-0.65,-8.33,11.99,14.61
20.666501998901367,-0.64,-5.46,13.31,14.4
20.669941902160645,0.94,-1.06,0.58,1.53
20.68002986907959,-2.43,11.12,-11.33,16.06
20.690688133239746,-0.41,23.76,-13.66,27.4
20.699899911880493,9.31,8.58,-7.25,14.58
20.71544885635376,3.9,-7.32,7.37,11.09
20.719738006591797,0.23,-11.61,25.81,28.3
20.730013847351074,-2.3,-4.21,22.47,22.97
20.740542888641357,2.02,-0.95,-12.22,12.42
20.749655961990356,-5.25,-2.92,-24.95,25.66
20.7652587890625,-1.57,-6.38,-2.79,7.13
20.76939582824707,0.32,-5.7,5.69,8.06
20.77999210357666,-0.57,1.47,1.05,1.89
20.789796829223633,-2.27,5.03,-6.04,8.18
20.799216985702515,-0.19,-5.55,-2.28,6.0
20.81461000442505,1.99,-8.69,14.2,16.76
20.81907892227173,-0.11,0.34,18.45,18.45
20.829472064971924,-1.12,15.71,-2.47,15.94
20.83933401107788,4.81,12.45,-14.82,19.94
20.849194049835205,1.76,-6.49,-13.43,15.01
20.864766120910645,-0.48,-3.38,-7.9,8.6
20.86901092529297,1.6,-6.36,1.11,6.65
20.878902912139893,2.28,-4.34,19.79,20.38
20.889343976974487,2.84,4.44,16.16,16.99
20.898936986923218,4.02,8.33,-14.6,17.28
20.91414213180542,-0.88,2.3,-21.98,22.11
20.918756008148193,-0.11,-6.66,-2.69,7.18
20.928797960281372,-1.32,-0.38,9.41,9.5
20.938767910003662,-2.02,4.53,12.48,13.42
20.948862075805664,-0.18,-4.84,0.27,4.85
20.964411973953247,0.01,-7.37,-5.85,9.4
20.968377113342285,0.83,1.04,-5.95,6.09
20.978764057159424,2.73,9.37,-6.15,11.53
20.988487005233765,1.89,5.91,-4.86,7.88
20.998840808868408,-0.8,-5.73,-0.22,5.78
21.01481008529663,-0.62,-8.51,10.16,13.26
21.01822280883789,-0.77,-6.43,14.52,15.89
21.028228998184204,-0.03,-2.64,9.61,9.96
21.038227081298828,-0.31,4.76,-2.1,5.21
21.04841184616089,0.57,13.18,-9.63,16.33
21.064216136932373,2.85,13.29,-11.62,17.88
21.067641019821167,0.46,-1.84,-8.61,8.81
21.077821969985962,-1.04,-8.8,-8.76,12.46
21.08816909790039,-2.49,-5.58,-11.44,12.96
21.097911834716797,-0.97,-4.71,-2.9,5.61
21.113389015197754,0.27,-6.62,11.24,13.04
21.117511987686157,5.75,2.03,24.08,24.84
21.12794589996338,1.22,8.88,13.46,16.17
21.13754892349243,2.28,7.16,-4.15,8.58
21.148099899291992,1.25,-6.96,-18.68,19.97
21.164299964904785,-4.39,-3.79,-11.85,13.19
21.167107105255127,-0.78,-5.95,1.94,6.3
21.17731285095215,-3.23,-6.54,12.75,14.68
21.187344074249268,-2.71,-0.62,13.87,14.14
21.197495937347412,-0.21,2.95,4.4,5.3
21.212677001953125,1.93,7.32,-11.76,13.98
21.216979026794434,3.73,3.45,-13.44,14.36
21.22701406478882,-0.73,-5.24,-1.96,5.64
21.237430095672607,-2.67,-2.2,7.81,8.54
21.247193813323975,-2.66,13.34,4.13,14.21
21.263226985931396,2.68,9.21,-5.74,11.17
21.266565799713135,1.65,-6.03,-3.25,7.04
21.276932954788208,-0.35,-7.99,5.58,9.75
21.28715491294861,0.22,-6.04,5.36,8.07
21.29678702354431,1.2,-0.13,-3.26,3.47
21.311927795410156,-0.98,5.11,-1.32,5.36
21.316385984420776,-1.34,9.8,-0.63,9.91
21.32641887664795,0.87,3.36,-4.95,6.04
21.33645796775818,-0.29,-6.5,-9.06,11.15
21.34694480895996,-1.21,-6.32,-4.99,8.14
21.362753868103027,-1.69,-4.69,6.79,8.42
21.366421937942505,-3.35,10.35,13.32,17.19
21.376171112060547,-0.73,19.87,6.23,20.83
21.38643789291382,2.4,2.06,-1.22,3.38
21.396533966064453,0.32,-7.85,-12.38,14.66
21.411995887756348,-0.4,-8.8,-8.12,11.98
21.41592311859131,-0.44,-7.11,1.98,7.39
21.425830841064453,0.15,-6.85,5.81,8.98
21.436054944992065,0.31,-6.43,6.65,9.25
21.44619607925415,1.14,-0.82,3.72,3.97
21.461982011795044,-1.19,13.21,1.85,13.39
21.46543312072754,0.75,33.67,0.41,33.68
21.4758939743042,4.67,1.22,-7.69,9.07
21.485716819763184,-1.49,-12.69,-14.84,19.58
21.496165990829468,-2.25,-7.74,-11.64,14.15
21.512051105499268,-0.71,-6.5,0.03,6.53
21.515524864196777,-0.59,-7.23,10.72,12.94
21.52578091621399,-0.77,-3.37,14.6,15.0
21.53537607192993,-0.46,1.95,4.41,4.84
21.5452561378479,-1.26,-1.36,-12.06,12.2
21.560581922531128,1.57,1.59,-12.02,12.22
21.564945936203003,0.55,8.78,-7.3,11.43
21.57637095451355,1.06,1.26,-4.65,4.93
21.585144996643066,-1.4,-6.81,0.69,6.98
21.59505605697632,-1.91,-6.37,5.83,8.84
21.610512018203735,-1.3,1.01,10.52,10.64
21.614675998687744,-0.98,6.47,5.63,8.63
21.625877857208252,1.36,5.59,-4.79,7.48
21.63489580154419,2.79,-1.15,-4.53,5.44
21.645251989364624,0.42,-6.12,4.29,7.48
21.66087293624878,0.35,-3.56,7.32,8.14
21.664618015289307,0.05,2.57,-1.1,2.79
21.675765991210938,1.62,2.73,-12.14,12.54
21.68465805053711,0.46,2.41,-8.68,9.02
21.694659948349,-0.94,-1.35,-2.74,3.19
21.709818840026855,-1.21,-5.35,1.27,5.63
21.71429204940796,-1.25,-5.45,9.96,11.42
21.725409030914307,0.4,0.15,12.2,12.2
21.734664916992188,1.44,6.02,-2.52,6.68
21.744544982910156,4.35,2.95,-10.19,11.46
21.760456085205078,-0.16,2.39,1.1,2.63
21.763840913772583,-1.35,8.01,6.36,10.31
21.775388956069946,-0.39,3.44,-0.1,3.46
21.78401494026184,-0.65,-3.86,0.2,3.91
21.79396891593933,-0.57,-5.74,6.28,8.52
21.809711933135986,0.28,-6.3,3.86,7.39
21.81380605697632,2.66,-2.78,-6.53,7.57
21.826355934143066,1.38,-2.61,-13.78,14.09
21.83378505706787,0.07,0.97,-7.5,7.56
21.84367799758911,-0.21,6.15,-3.36,7.01
21.85926389694214,-0.27,3.89,8.29,9.16
21.863778114318848,0.12,4.09,21.39,21.77
21.876079082489014,-0.51,4.71,14.96,15.69
21.883858919143677,4.95,-0.96,-14.21,15.07
21.893581867218018,0.13,-2.15,-20.91,21.02
21.90921688079834,-0.77,-3.87,-4.59,6.05
21.913229942321777,-0.43,-6.07,-0.29,6.09
21.925235986709595,-1.87,-4.46,-2.64,5.5
21.932986974716187,0.22,3.05,-5.44,6.24
21.943307876586914,0.1,12.1,-1.49,12.19
21.95914888381958,1.09,11.3,3.35,11.83
21.962788105010986,1.93,-4.58,9.53,10.74
21.975903034210205,-0.25,-5.21,5.01,7.23
21.98275399208069,1.98,1.27,-4.02,4.65
21.99329900741577,1.12,7.2,-5.79,9.3
22.00913095474243,0.5,4.0,-6.68,7.8
22.012805938720703,0.25,-8.39,-3.1,8.94
22.025317907333374,-0.88,-8.34,-1.5,8.51
22.032721042633057,-0.92,-5.56,3.3,6.53
22.042663097381592,-1.01,1.98,6.38,6.75
22.05782985687256,0.52,6.36,4.73,7.94
22.06239891052246,3.93,4.74,-3.92,7.29
22.076021909713745,2.74,-0.42,-6.47,7.03
22.082165956497192,1.17,-0.96,-9.67,9.78
22.092259883880615,0.38,-2.75,-4.32,5.13
22.10793685913086,0.12,-0.16,-0.78,0.8
22.11200714111328,0.21,-4.31,6.36,7.68
22.125070095062256,0.39,-0.31,19.48,19.48
22.131916046142578,-1.12,5.86,16.7,17.73
22.142724990844727,2.09,7.14,-9.1,11.75
22.15791893005371,1.79,-6.0,-17.54,18.62
22.161683082580566,-0.91,-8.51,-3.9,9.4
22.175457000732422,-0.63,-5.59,8.42,10.12
22.181674003601074,-1.27,3.58,10.4,11.07
22.19240093231201,1.56,15.57,-6.0,16.75
22.20788288116455,4.07,2.19,-12.96,13.75
22.211569786071777,-0.01,-8.81,-2.49,9.15
22.22591996192932,-1.08,-5.63,4.31,7.17
22.231905937194824,-0.3,-2.13,5.16,5.59
22.24210000038147,-0.11,1.27,5.47,5.61
22.258090019226074,0.52,3.88,6.01,7.17
22.261383056640625,0.99,6.69,5.7,8.84
22.276299953460693,4.96,6.81,-8.36,11.86
22.28110980987549,2.5,-0.2,-18.57,18.73
22.292108058929443,-0.51,-2.44,-9.9,10.2
22.307438850402832,0.69,-5.83,-1.6,6.08
22.31090497970581,-0.62,-5.62,10.37,11.81
22.32561683654785,-0.22,3.3,14.34,14.71
22.330842971801758,0.84,-0.56,1.05,1.45
22.342947006225586,0.5,-5.78,-10.36,11.87
22.35881280899048,-0.56,4.13,-12.14,12.83
22.36087703704834,0.77,11.77,-4.43,12.59
22.37644386291504,0.82,9.09,8.16,12.24
22.38088607788086,2.13,-0.44,17.66,17.79
22.39236092567444,0.91,-5.99,13.77,15.04
22.407844066619873,2.91,-0.25,-9.99,10.4
22.410408973693848,1.3,-1.43,-20.7,20.79
22.425888061523438,-1.0,-6.02,-6.06,8.6
22.43028998374939,-1.27,1.19,0.77,1.9
22.441853046417236,-0.9,6.99,1.3,7.16
22.457048892974854,-0.72,1.36,2.64,3.05
22.460219860076904,-0.26,-7.41,8.13,11.0
22.47610902786255,0.35,0.05,3.39,3.4
22.47989296913147,2.78,9.58,-11.44,15.17
22.493003845214844,1.98,7.14,-10.12,12.54
22.50862193107605,-0.03,-6.47,-0.95,6.53
22.510284900665283,-0.8,-8.34,6.42,10.55
22.52632999420166,-1.6,-3.9,6.45,7.7
22.529937982559204,-0.18,0.06,5.03,5.03
22.542516946792603,-0.26,1.57,7.32,7.49
22.55789279937744,-1.11,6.69,3.74,7.74
22.55953598022461,1.28,7.32,-7.0,10.2
22.57602095603943,2.5,-3.9,-7.86,9.12
22.57947301864624,-1.25,-8.6,1.15,8.76
22.592333793640137,-1.49,-3.24,2.55,4.38
22.607740879058838,0.12,4.8,-7.07,8.54
22.60932993888855,1.48,2.42,-10.1,10.49
22.626174926757812,-1.48,-2.76,1.47,3.45
22.62921690940857,-2.5,0.35,6.95,7.39
22.642877101898193,-0.73,6.19,2.58,6.74
22.65884780883789,2.58,5.84,-8.46,10.59
22.660076141357422,0.63,-1.33,-6.84,6.99
22.676350116729736,-1.76,-4.1,-0.39,4.47
22.67931079864502,-1.58,-2.05,0.42,2.62
22.692187786102295,-1.27,-4.44,6.86,8.26
22.707762956619263,0.43,1.17,18.51,18.55
22.70898199081421,-0.08,6.79,15.57,16.98
22.71892786026001,3.54,-0.34,-2.48,4.33
22.729143142700195,2.11,-7.68,-7.22,10.75
22.73883581161499,-0.3,-3.97,-2.8,4.86
22.754109859466553,1.53,2.27,-5.53,6.17
22.758343935012817,-0.01,1.91,-6.57,6.84
22.776854991912842,-2.68,-1.36,1.73,3.46
22.778335094451904,-3.26,3.47,7.85,9.18
22.79212188720703,0.13,4.21,-1.84,4.59
22.80813193321228,4.52,-5.35,-17.27,18.63
22.80937099456787,0.6,-2.84,-13.18,13.49
22.82621479034424,0.65,-5.45,-0.4,5.5
22.82801580429077,-0.76,1.6,6.18,6.42
22.84278893470764,-2.13,26.55,0.91,26.65
22.858409881591797,5.07,13.32,3.61,14.7
22.859591007232666,1.17,-10.55,16.0,19.2
22.876562118530273,-0.17,-9.07,12.44,15.39
22.877777099609375,0.31,-4.63,-4.4,6.39
22.892837047576904,-1.96,6.95,-20.33,21.57
22.908538818359375,-0.02,4.07,-7.9,8.88
22.909739017486572,1.07,-8.54,1.45,8.72
22.926578044891357,-1.14,-6.68,-4.7,8.24
22.927539825439453,0.8,-2.42,-13.09,13.33
22.942991018295288,0.78,-3.16,-0.78,3.34
22.958652019500732,0.57,-7.13,16.6,18.07
22.959834098815918,-0.05,0.57,22.5,22.5
22.97660493850708,2.73,1.26,9.68,10.13
22.97754693031311,0.42,-0.17,-1.33,1.4
22.992045879364014,0.0,6.3,-19.77,20.74
23.007790088653564,0.82,10.02,-16.98,19.73
23.009074926376343,1.17,3.21,-10.54,11.07
23.02663493156433,-1.34,-7.47,4.69,8.92
23.027597904205322,0.12,-4.77,22.52,23.01
23.04318904876709,-2.0,4.9,17.69,18.46
23.05855894088745,0.88,3.89,-3.58,5.35
23.05988311767578,0.59,-0.53,-12.43,12.45
23.0779869556427,1.4,-0.82,-12.87,12.97
23.078941822052002,1.42,1.98,-8.14,8.49
23.093656063079834,0.38,-5.13,-1.63,5.39
23.108859062194824,-0.96,-9.2,7.37,11.82
23.11011290550232,-1.51,-7.21,18.47,19.88
23.126357078552246,-1.67,0.95,15.46,15.57
23.12728786468506,-1.03,6.12,0.8,6.25
23.142895936965942,0.75,9.19,-6.01,11.0
23.158419132232666,3.45,7.74,-10.12,13.19
23.159621953964233,3.97,3.49,-16.73,17.54
23.178114891052246,-0.68,0.74,-10.63,10.67
23.179061889648438,-0.86,-5.11,-2.07,5.58
23.19266986846924,-2.49,-6.03,10.02,11.95
23.208592891693115,-3.62,4.02,17.43,18.25
23.20980191230774,0.65,3.13,0.54,3.24
23.228327989578247,4.47,-7.61,-19.83,21.7
23.229259967803955,-1.06,-7.64,-12.52,14.7
23.245600938796997,0.17,-5.16,1.5,5.37
23.261704921722412,0.42,-2.47,7.64,8.04
23.26285696029663,-1.68,8.16,8.33,11.78
23.276745796203613,-0.93,20.22,7.68,21.64
23.277671813964844,1.96,4.68,7.11,8.73
23.29283094406128,0.63,-5.46,-8.05,9.74
23.308161973953247,1.09,-8.19,-9.19,12.35
23.309366941452026,1.24,-7.39,-6.16,9.7
23.326589107513428,0.44,-5.22,-2.08,5.63
23.3275408744812,-0.54,0.9,0.73,1.27
23.34281897544861,-1.8,11.9,2.05,12.2
23.35866093635559,-0.66,9.36,7.26,11.86
23.359862804412842,0.27,-7.64,4.72,8.98
23.376996994018555,-0.26,-7.38,-3.67,8.24
23.377978801727295,0.47,-7.68,-0.12,7.69
23.393640995025635,0.37,-4.42,5.9,7.38
23.4095299243927,0.12,2.8,5.72,6.36
23.410759925842285,-0.74,10.55,4.17,11.36
23.42688512802124,1.49,16.34,1.04,16.44
23.42780113220215,1.81,-1.1,-8.0,8.27
23.443145990371704,-0.7,-6.86,-11.6,13.49
23.45868992805481,-0.12,-5.05,-5.18,7.23
23.45985984802246,-0.04,-7.49,0.84,7.53
23.476884841918945,-1.03,-3.12,1.47,3.59
23.477811813354492,0.67,4.44,-4.31,6.22
23.494853019714355,-0.06,4.46,-4.29,6.18
23.51072597503662,-1.17,-2.42,5.58,6.19
23.511943817138672,0.06,-4.87,14.32,15.12
23.526837825775146,1.18,-3.38,8.52,9.24
23.52778196334839,2.76,1.07,-6.79,7.4
23.543656826019287,-0.14,5.06,-5.85,7.73
23.559436798095703,-1.53,12.19,0.22,12.28
23.56062412261963,1.75,9.44,-5.15,10.89
23.576261043548584,-0.57,-3.49,-9.15,9.8
23.577375888824463,-1.58,-8.3,-4.65,9.64
23.592866897583008,-1.32,-7.04,0.67,7.19
23.608328819274902,-0.5,0.35,-3.03,3.09
23.609556913375854,-0.2,0.43,-0.46,0.66
23.626783847808838,-1.64,0.39,10.14,10.27
23.627707958221436,-0.79,3.87,12.7,13.3
23.642971992492676,0.72,7.08,-5.71,9.12
23.658835887908936,3.32,-2.2,-15.58,16.08
23.660046100616455,-1.09,-8.67,-2.98,9.23
23.67673110961914,-1.59,-4.93,3.16,6.06
23.677648067474365,-0.58,3.89,-0.52,3.96
23.693403005599976,0.37,6.6,-3.44,7.45
23.70935583114624,-1.18,-0.33,5.32,5.45
23.710564136505127,-1.24,-2.86,19.14,19.39
23.72690200805664,-0.73,-0.09,12.54,12.56
23.727828979492188,0.26,-5.54,-2.0,5.89
23.743351936340332,0.24,-2.11,-2.85,3.55
23.75936508178711,0.7,-2.1,0.26,2.22
23.760601043701172,0.08,2.41,-6.54,6.97
23.776726007461548,0.0,1.28,-10.96,11.03
23.777645111083984,-1.72,-6.7,-0.87,6.97
23.793397903442383,-2.47,-6.08,8.39,10.65
23.80913496017456,-2.94,4.54,10.02,11.38
23.810418128967285,-0.99,15.67,-4.68,16.38
23.826973915100098,5.93,7.95,-15.17,18.12
23.82794713973999,2.15,-3.04,-9.04,9.77
23.843470096588135,-0.39,-6.41,-0.3,6.42
23.85896396636963,-1.44,0.02,3.24,3.54
23.860186100006104,1.05,1.64,-2.22,2.95
23.877059936523438,0.06,-7.32,-4.74,8.72
23.877984046936035,-0.63,-8.24,1.48,8.39
23.893297910690308,-1.21,-3.44,14.47,14.92
23.909350872039795,0.23,5.67,22.38,23.08
23.91064691543579,-4.32,15.94,12.76,20.87
23.92690896987915,2.76,4.27,-2.28,5.57
23.927792072296143,2.19,1.18,-13.96,14.17
23.94339895248413,-1.17,0.99,-16.52,16.59
23.95928382873535,-0.31,-5.87,-10.82,12.31
23.960524082183838,-2.22,-3.17,-11.13,11.78
23.976125955581665,-1.1,-7.5,-2.7,8.04
23.97723913192749,-2.09,-5.27,7.19,9.15
23.992992877960205,-2.11,5.61,8.69,10.55
24.008628845214844,1.82,12.19,-3.72,12.87
24.00993299484253,5.92,-3.65,-4.31,8.18
24.0260648727417,1.0,-3.38,-0.99,3.66
24.027233123779297,1.77,6.2,0.42,6.46
24.04389190673828,1.35,9.22,-0.52,9.33
24.059228897094727,0.05,-2.25,2.66,3.48
24.060515880584717,-0.11,-9.48,5.58,11.0
24.07648801803589,-1.18,-7.66,3.95,8.69
24.077428817749023,-1.89,-5.08,4.16,6.83
24.093291997909546,-2.1,1.7,2.29,3.54
24.10874605178833,-0.56,2.08,-1.82,2.82
24.11006784439087,0.41,-1.65,-4.83,5.12
24.127084970474243,-0.22,-3.18,-6.07,6.85
24.128041982650757,-1.29,-2.32,-6.33,6.86
24.14296579360962,-1.48,-3.49,0.38,3.8
24.158884048461914,-1.19,-1.06,11.11,11.22
24.160162925720215,1.15,-0.04,19.05,19.08
24.176488876342773,0.68,0.35,10.21,10.23
24.177431106567383,0.88,2.34,-11.81,12.07
24.193626880645752,0.72,7.88,-22.66,24.0
24.209025859832764,1.44,11.03,-10.5,15.29
24.21029806137085,0.12,8.3,-3.82,9.13
24.229120016098022,-1.92,-4.51,-0.92,4.98
24.23009204864502,-1.03,-9.97,15.61,18.55
24.2441349029541,-0.2,-0.73,30.77,30.77
24.260191917419434,1.36,-0.74,10.08,10.19
24.261408805847168,0.97,-7.83,-11.57,14.0
24.276859998703003,1.12,-5.59,-18.11,18.98
24.277852058410645,0.04,3.3,-6.6,7.37
24.293386936187744,0.95,5.2,-1.97,5.64
24.308584928512573,0.55,0.81,-0.73,1.22
24.310014963150024,-2.31,-5.26,-4.14,7.08
24.3266339302063,0.04,-5.11,2.98,5.91
24.327603816986084,1.61,4.13,4.72,6.47
24.3432400226593,-0.9,12.47,4.26,13.2
24.35989499092102,1.69,6.31,9.03,11.14
24.361105918884277,0.67,-5.3,8.06,9.66
24.376694917678833,0.97,-2.78,-12.99,13.31
24.377638816833496,1.6,3.74,-22.92,23.27
24.393774032592773,1.68,7.27,-9.94,12.42
24.409202098846436,0.63,-1.48,0.59,1.71
24.410449028015137,-1.9,-3.33,2.01,4.32
24.427043914794922,-1.13,-5.75,5.64,8.13
24.42799186706543,0.96,-5.09,0.62,5.21
24.44286012649536,2.57,-0.25,-7.91,8.32
24.458805084228516,0.0,4.13,-5.86,7.16
24.46005392074585,-0.75,2.7,1.34,3.1
24.47626495361328,0.59,1.43,5.46,5.67
24.477306842803955,-0.01,-6.8,5.35,8.65
24.493765830993652,-0.03,-8.88,10.71,13.91
24.509233951568604,0.86,-4.37,14.84,15.49
24.510478973388672,0.41,-0.9,3.77,3.89
24.527729034423828,0.28,1.83,-13.89,14.01
24.528738975524902,-1.8,6.38,-16.84,18.09
24.543776988983154,-0.65,5.26,-7.18,8.92
24.559226989746094,-0.63,-1.72,-1.05,2.11
24.560412883758545,-1.63,-6.98,0.08,7.16
24.57677698135376,0.08,-8.05,10.63,13.33
24.57775092124939,0.76,1.66,15.72,15.82
24.59338092803955,0.36,12.41,7.62,14.56
24.60925006866455,3.8,3.79,0.91,5.44
24.610465049743652,2.44,-6.92,-11.25,13.43
24.627091884613037,-0.74,1.57,-18.85,18.92
24.628062963485718,0.54,1.82,-11.72,11.87
24.643352031707764,1.63,-6.66,-0.67,6.88
24.659032821655273,-0.52,-5.29,6.8,8.63
24.660283088684082,1.97,3.43,15.78,16.26
24.677043914794922,1.56,15.06,13.59,20.34
24.678026914596558,3.58,2.35,-4.5,6.21
24.692677974700928,1.73,-10.02,-13.61,16.98
24.7086238861084,-1.14,-6.08,-2.97,6.86
24.70988893508911,-0.88,-4.2,5.57,7.03
24.727710008621216,-0.57,0.39,7.89,7.92
24.72870898246765,-0.54,1.86,4.44,4.84
24.744493007659912,-0.47,1.59,3.76,4.1
24.760229110717773,-1.64,3.21,2.78,4.55
24.761477947235107,0.36,8.25,-12.22,14.74
24.777204036712646,1.53,0.13,-13.03,13.12
24.77815580368042,0.82,-4.18,-0.93,4.36
24.79330587387085,0.41,-0.47,5.56,5.59
24.808408975601196,2.05,5.99,0.22,6.33
24.80979299545288,3.64,5.24,-11.66,13.29
24.82710886001587,-0.57,5.32,-9.05,10.51
24.82805585861206,-0.33,-3.78,1.31,4.01
24.843521118164062,-2.0,-1.59,12.77,13.02
24.859315872192383,-1.67,4.29,7.94,9.17
24.860554933547974,1.2,-9.0,-6.35,11.07
24.87686800956726,-1.01,-9.24,-9.72,13.44
24.87787699699402,-0.36,-5.0,-0.58,5.04
24.893326997756958,0.43,1.32,11.62,11.7
24.909348964691162,-1.06,21.77,16.68,27.44
24.910615921020508,2.43,18.99,15.73,24.77
24.927486896514893,1.38,-6.48,-10.47,12.39
24.928431034088135,-0.02,-11.5,-24.93,27.45
24.944031953811646,-1.56,-6.43,-8.14,10.48
24.960205078125,-0.49,1.19,0.13,1.29
24.961472034454346,-0.07,-1.54,-4.53,4.78
24.97731590270996,-0.68,-7.26,-8.02,10.83
24.978250980377197,-2.05,-7.06,-2.19,7.67
24.993611812591553,-1.79,-2.55,0.01,3.11
25.00937294960022,-0.22,6.0,-0.49,6.02
25.0106520652771,-1.5,21.16,4.75,21.73
25.027297019958496,5.76,4.58,21.25,22.48
25.02830195426941,-0.44,-7.26,31.78,32.6
25.043975830078125,0.76,-3.87,0.84,4.03
25.059992790222168,1.47,-4.29,-19.27,19.79
25.06127405166626,-1.59,-7.46,-10.84,13.25
25.078788995742798,-1.94,-5.0,-0.31,5.37
25.0797438621521,-1.97,-3.44,-1.64,4.29
25.092774868011475,-1.84,-5.54,-3.07,6.59
25.10819697380066,-1.93,-4.93,1.97,5.64
25.10945701599121,-0.37,0.1,6.44,6.45
25.126951932907104,2.56,1.26,-1.85,3.4
25.12807297706604,2.65,4.33,-12.1,13.12
25.143872022628784,0.7,10.94,-3.46,11.49
25.15945291519165,0.75,6.95,12.73,14.52
25.160696983337402,-0.12,0.93,21.34,21.36
25.17853593826294,1.13,0.72,2.32,2.67
25.179476976394653,2.91,6.98,-18.98,20.43
25.193294048309326,1.5,17.79,-22.07,28.38
25.210029125213623,1.49,6.43,-7.32,9.85
25.211316108703613,-2.0,-6.34,-1.28,6.77
25.227439880371094,-1.66,-9.83,5.21,11.24
25.228585958480835,-2.25,-7.14,11.77,13.94
25.24384880065918,-3.58,-2.64,4.51,6.33
25.259829998016357,-1.63,-1.52,3.83,4.43
25.26105785369873,1.18,-5.19,6.61,8.48
25.277544021606445,-0.46,-6.7,-0.64,6.74
25.27848482131958,-1.37,-3.82,-2.09,4.56
25.294078826904297,0.25,-2.65,2.37,3.56
25.309562921524048,-0.63,-0.35,-0.1,0.72
25.310844898223877,-1.71,3.8,-5.62,6.99
25.326991081237793,-0.47,5.21,-8.84,10.27
25.328237056732178,-0.17,7.08,-8.23,10.85
25.34376811981201,0.68,6.38,-4.66,7.92
25.359675884246826,0.9,0.88,-0.43,1.33
25.36084508895874,0.33,-5.95,5.3,7.97
25.377493858337402,-1.2,-5.32,16.38,17.26
25.37849998474121,0.28,-0.52,12.17,12.18
25.394737005233765,0.24,-0.66,-3.7,3.76
25.41159200668335,-0.09,1.72,-15.05,15.14
25.412808895111084,0.17,4.02,-11.24,11.93
25.427637100219727,0.16,-2.37,1.44,2.77
25.4285888671875,-2.1,-1.11,6.0,6.45
25.443885803222656,-2.29,5.3,4.31,7.2
25.45939302444458,0.29,4.85,-1.31,5.03
25.460626125335693,2.98,-0.84,-8.2,8.76
25.47683095932007,2.21,-4.51,-6.76,8.42
25.478052139282227,1.75,-4.21,-4.15,6.16
25.49437379837036,-0.08,-6.15,0.28,6.15
25.511208057403564,-1.76,-2.15,2.19,3.53
25.512511014938354,-1.46,4.2,2.63,5.16
25.52823781967163,-0.2,4.73,4.74,6.69
25.529215812683105,1.52,-2.43,4.14,5.03
25.544540882110596,3.12,-4.3,-3.96,6.62
25.55996608734131,2.17,-4.3,-7.7,9.08
25.561133861541748,-1.19,-3.21,-0.52,3.46
25.576898097991943,-1.24,5.58,2.32,6.16
25.578073024749756,0.13,6.35,3.94,7.47
25.593981981277466,-0.32,-0.12,9.05,9.05
25.609769821166992,1.02,-2.28,11.99,12.24
25.610986948013306,1.33,2.72,0.33,3.04
25.627737045288086,2.55,3.22,-11.81,12.5
25.62870192527771,-0.55,-5.22,-2.93,6.01
25.643695831298828,-1.6,-2.62,4.93,5.8
25.659502029418945,-0.52,-3.02,6.15,6.87
25.660681009292603,0.46,1.79,-6.05,6.32
25.67702293395996,1.14,-1.36,-8.44,8.62
25.678007125854492,0.19,3.16,0.55,3.21
25.6942138671875,0.9,6.12,4.19,7.47
25.71022605895996,2.91,-0.89,2.92,4.21
25.711509943008423,1.17,1.24,-1.03,1.99
25.727258920669556,0.96,8.48,-4.35,9.57
25.72824192047119,-0.39,9.95,-4.76,11.03
25.743834018707275,0.43,2.24,-5.55,6.0
25.759503841400146,0.58,-8.0,-2.96,8.54
25.760767936706543,-0.29,-8.34,2.37,8.67
25.777063846588135,-0.09,-6.2,2.81,6.8
25.778048038482666,0.15,-6.03,5.3,8.02
25.794304847717285,0.47,-3.04,12.97,13.32
25.809839963912964,0.26,0.54,8.79,8.81
25.811152935028076,-0.09,1.35,-5.61,5.77
25.828136920928955,-1.47,7.1,-16.59,18.1
25.829102993011475,2.06,-0.41,-10.48,10.68
25.84355401992798,1.6,-1.87,-4.15,4.82
25.859623908996582,-1.12,-0.17,-6.53,6.62
25.860858917236328,-0.29,2.53,-4.73,5.37
25.87741494178772,-1.03,-0.68,4.41,4.57
25.87838101387024,-0.42,-6.28,15.64,16.85
25.893985986709595,-0.99,1.95,19.17,19.29
25.909995079040527,-1.37,10.88,-0.09,10.96
25.911230087280273,1.6,12.12,-8.44,14.85
25.927401065826416,1.38,-2.0,-6.44,6.88
25.928349018096924,0.04,-2.5,-9.43,9.75
25.944319009780884,0.23,-4.63,-7.72,9.0
25.960739135742188,-0.51,-7.88,3.35,8.57
25.961870908737183,-2.05,-4.52,14.76,15.57
25.977957010269165,-0.46,4.53,18.94,19.47
25.978907108306885,-0.02,3.81,7.51,8.42
25.99397301673889,4.15,0.86,-11.28,12.04
26.009867906570435,2.39,2.91,-20.39,20.73
26.011104106903076,0.15,-7.15,-8.16,10.85
26.02737283706665,-0.22,-8.47,-1.52,8.6
26.028493881225586,-1.26,-7.69,8.89,11.82
26.044227123260498,-2.6,-3.12,16.87,17.35
26.060173988342285,-0.52,3.18,8.5,9.09
26.06142497062683,-0.5,4.11,-3.43,5.37
26.07726812362671,2.24,2.58,-14.46,14.85
26.0782151222229,1.48,3.78,-14.75,15.29
26.09424114227295,-0.39,1.94,-9.04,9.25
26.11070990562439,-1.26,-5.29,1.46,5.63
26.11192798614502,-2.2,-1.5,11.84,12.13
26.128392934799194,-1.45,6.17,13.05,14.5
26.129372119903564,0.25,-0.29,1.98,2.01
26.144345998764038,1.32,-5.38,-7.71,9.49
26.159975051879883,0.36,-1.01,1.31,1.69
26.161180019378662,2.25,0.54,1.68,2.85
26.177733898162842,0.32,-3.24,-4.48,5.53
26.178678035736084,-0.72,0.71,-3.89,4.01
26.196807861328125,-0.98,14.64,-8.23,16.82
26.21289896965027,3.22,11.93,-11.46,16.85
26.214137077331543,1.58,-5.77,-0.85,6.04
26.22767686843872,-0.31,-9.99,13.05,16.43
26.228643894195557,0.42,-7.57,23.29,24.49
26.243875980377197,-0.32,2.05,6.96,7.26
26.25940179824829,3.43,1.15,-13.42,13.89
26.260684967041016,-0.06,-6.01,-6.26,8.67
26.277958869934082,-0.92,0.11,1.26,1.56
26.278923988342285,0.77,7.56,-5.56,9.41
26.29370093345642,0.96,1.72,-11.04,11.21
26.309724807739258,-0.64,-8.01,0.0,8.03
26.311019897460938,-0.96,-8.68,12.56,15.29
26.327692985534668,-1.76,-4.56,11.71,12.68
26.328675985336304,1.42,1.53,-10.21,10.42
26.344278812408447,1.56,4.89,-18.97,19.65
26.360268115997314,1.41,2.21,-1.84,3.2
26.36150884628296,0.9,0.04,16.72,16.74
26.378478050231934,-0.17,5.75,15.47,16.5
26.37942600250244,1.38,3.29,-1.1,3.73
26.393585920333862,1.74,-7.36,-11.35,13.63
26.409492015838623,-1.95,-4.87,-7.68,9.3
26.41082191467285,-0.23,2.57,0.44,2.61
26.428026914596558,-1.96,13.18,7.23,15.16
26.42898392677307,1.26,14.19,8.09,16.38
26.444557905197144,1.55,-3.87,6.91,8.07
26.46033501625061,0.85,1.63,-16.37,16.47
26.46164608001709,0.19,0.73,-22.68,22.69
26.477433919906616,0.01,-3.26,-9.02,9.59
26.47852611541748,0.64,-8.4,1.74,8.6
26.494709968566895,-1.56,-8.07,11.06,13.77
26.51133108139038,0.58,-1.07,19.33,19.36
26.512546062469482,-0.37,-2.31,11.45,11.68
26.52850914001465,-0.09,0.35,4.48,4.49
26.529489994049072,-0.22,2.99,2.96,4.21
26.54451608657837,-0.41,9.01,-0.38,9.02
26.560239791870117,4.72,3.88,-8.36,10.35
26.561502933502197,3.1,-9.18,-14.51,17.44
26.577993869781494,-1.73,-4.97,-10.92,12.12
26.578958988189697,0.53,-6.57,-2.06,6.9
26.594883918762207,-0.86,-5.86,4.92,7.69
26.61079692840576,-0.45,3.86,1.5,4.16
26.61202096939087,-0.41,14.06,-7.34,15.86
26.628458976745605,0.03,1.71,-2.51,3.03
26.62942099571228,-0.5,-8.34,3.37,9.0
26.64464807510376,-1.18,-8.05,3.94,9.03
26.660486936569214,-0.23,-5.86,0.1,5.86
26.66177988052368,0.35,3.04,-2.83,4.16
26.67788600921631,-1.59,13.07,3.03,13.51
26.678843021392822,2.13,17.72,2.86,18.07
26.69415807723999,2.18,-4.78,-3.52,6.32
26.71038293838501,-2.01,-8.66,-7.22,11.45
26.71168088912964,-2.81,-5.68,-1.27,6.46
26.727958917617798,-2.17,0.36,5.76,6.16
26.72904396057129,-2.0,6.83,6.1,9.37
26.744773864746094,-0.01,3.34,4.44,5.55
26.761058807373047,1.5,-7.8,0.97,8.0
26.762314796447754,3.17,-6.75,-9.5,12.07
26.778137922286987,2.39,-6.57,-3.24,7.7
26.779067039489746,0.79,-5.58,6.04,8.26
26.794611930847168,0.58,2.0,5.68,6.04
26.810382843017578,0.69,10.21,-5.27,11.51
26.81167507171631,0.95,3.93,-3.63,5.43
26.827603816986084,-0.82,-1.68,0.88,2.06
26.828761100769043,0.18,1.49,3.37,3.68
26.844772815704346,0.12,3.57,5.73,6.75
26.860538005828857,1.03,6.8,6.26,9.29
26.861779928207397,1.01,-5.09,2.09,5.59
26.87803888320923,-1.5,-6.75,-3.02,7.54
26.87921905517578,-1.47,-4.1,-6.76,8.04
26.894888877868652,-0.38,3.14,-9.16,9.69
26.910901069641113,-0.12,12.61,-12.99,18.1
26.91218900680542,1.3,7.23,-5.96,9.45
26.927889823913574,-0.35,-8.94,6.99,11.35
26.929171085357666,-0.97,-9.23,15.97,18.47
26.944264888763428,-0.58,-3.89,14.27,14.8
26.959993839263916,-0.15,3.57,-4.08,5.42
26.961259841918945,0.95,5.11,-8.82,10.23
26.977996826171875,0.68,7.08,-3.83,8.07
26.97902798652649,1.46,7.53,-6.71,10.19
26.994792938232422,2.62,-4.1,-9.89,11.02
27.01047396659851,-0.12,-7.98,-4.42,9.12
27.0117769241333,-0.83,-6.14,6.22,8.77
27.027692794799805,-0.88,1.94,9.53,9.76
27.028989791870117,0.58,5.43,2.86,6.16
27.044917106628418,0.91,-2.11,0.7,2.4
27.060988903045654,-0.57,-1.42,-0.77,1.71
27.06225895881653,1.19,-1.45,-9.22,9.4
27.078063011169434,0.0,-3.14,-10.95,11.39
27.079108953475952,-0.64,-4.93,1.31,5.14
27.094767093658447,-2.48,7.14,13.79,15.72
27.11046600341797,-0.11,17.32,11.85,20.98
27.111676931381226,4.7,-4.08,-6.08,8.7
27.12799882888794,0.16,-9.51,-16.0,18.61
27.12915802001953,-1.29,-7.5,-1.09,7.68
27.144686937332153,-1.03,-2.29,13.33,13.56
27.160449981689453,-0.86,6.94,12.88,14.65
27.161654949188232,-0.17,14.75,0.36,14.75
27.180413961410522,2.62,-1.85,-3.34,4.63
27.181378841400146,-1.12,-5.99,-10.73,12.33
27.195088863372803,0.0,-4.31,-7.14,8.34
27.21109104156494,0.4,-7.19,1.06,7.27
27.212333917617798,-1.09,-6.5,3.6,7.5
27.227951049804688,-0.2,3.92,-7.79,8.72
27.229057788848877,1.17,8.25,-10.24,13.2
27.245123863220215,-0.51,1.84,6.56,6.83
27.26081609725952,-0.46,0.35,24.52,24.52
27.262049913406372,-3.21,12.55,15.26,20.01
27.277745008468628,7.55,0.89,-23.45,24.65
27.27899980545044,2.17,-11.35,-20.7,23.7
27.294816970825195,-1.18,-8.16,-1.77,8.43
27.31062602996826,-1.25,-5.39,9.89,11.33
27.311851024627686,-2.35,-3.32,15.62,16.14
27.329554080963135,-0.46,1.59,13.93,14.02
27.33051586151123,-0.54,1.4,2.99,3.34
27.34679079055786,-2.26,4.85,-1.26,5.49
27.36282205581665,1.44,7.79,-20.89,22.34
27.36407494544983,6.2,0.25,-15.0,16.23
27.3784818649292,0.28,-5.78,-10.16,11.69
27.37952494621277,-2.97,-4.5,-5.98,8.05
27.3945369720459,-1.62,0.33,-5.64,5.87
27.410468101501465,0.6,0.55,-2.91,3.02
27.411707878112793,-0.37,-0.7,1.27,1.49
27.428450107574463,-0.88,-7.0,6.24,9.41
27.429467916488647,0.8,-0.3,17.67,17.69
27.445343017578125,-2.4,20.07,11.08,23.05
27.461577892303467,8.22,19.69,7.19,22.51
27.462831020355225,6.66,-1.74,16.29,17.68
27.479361057281494,0.12,-6.99,-1.39,7.12
27.48033380508423,-0.16,-6.81,-10.23,12.29
27.495319843292236,-1.48,-7.37,-7.52,10.63
27.51167106628418,-2.43,-4.74,-2.65,5.94
27.512938976287842,-2.04,-0.74,-2.99,3.69
27.52945613861084,-2.23,-2.02,4.21,5.17
27.530445098876953,-1.6,-0.18,9.26,9.39
27.544775009155273,-0.46,4.15,4.07,5.83
27.56050992012024,1.68,9.94,-10.61,14.63
27.561758041381836,3.5,9.01,-9.41,13.48
27.578041076660156,1.62,-8.94,-0.12,9.08
27.579043865203857,0.38,-9.61,12.74,15.96
27.59614610671997,-0.46,-2.54,11.45,11.73
27.61255192756653,-1.56,6.93,-1.01,7.17
27.613775968551636,2.51,6.34,-5.38,8.68
27.62915301322937,1.69,11.51,-5.87,13.03
27.630100965499878,0.88,2.62,0.66,2.84
27.64444589614868,0.99,-8.48,-3.42,9.19
27.66053795814514,-0.19,-8.08,-1.53,8.22
27.661808013916016,-0.54,-6.34,1.41,6.51
27.67806100845337,-0.01,-3.15,-3.11,4.42
27.67899799346924,-2.05,-2.92,-4.34,5.61
27.69481897354126,-1.25,-4.78,-3.3,5.94
27.710624933242798,-0.76,-6.87,-5.36,8.74
27.711872100830078,0.53,-6.15,-0.01,6.17
27.72885298728943,-0.28,4.65,-4.41,6.41
27.729805946350098,-1.07,20.46,-10.01,22.8
27.744933128356934,9.21,10.32,-5.83,15.01
27.761033058166504,0.67,1.09,10.14,10.22
27.762269020080566,-1.45,6.96,16.39,17.86
27.778573989868164,3.64,4.0,-6.56,8.5
27.779519081115723,-0.05,-8.51,-9.09,12.45
27.79451608657837,-1.67,-8.79,3.82,9.72
27.810581922531128,-3.03,-6.44,18.61,19.92
27.811922073364258,-2.0,0.26,8.11,8.35
27.829113960266113,-1.47,-5.15,-5.67,7.79
27.83008909225464,-1.33,-8.08,0.1,8.18
27.844599962234497,-0.56,-0.94,6.88,6.96
27.860602855682373,2.27,-1.58,9.65,10.03
27.86184310913086,2.86,-2.52,0.82,3.89
27.878758907318115,2.12,8.13,-18.86,20.64
27.879776000976562,4.81,10.86,-14.08,18.42
27.894731998443604,3.94,-5.51,3.65,7.69
27.910747051239014,-0.68,-8.15,11.7,14.27
27.911919116973877,-3.23,-1.54,13.56,14.02
27.929017066955566,-2.31,1.72,-1.16,3.1
27.92996311187744,-1.88,-4.13,-2.88,5.37
27.94496202468872,-1.54,-0.53,2.4,2.9
27.960710048675537,0.08,5.66,-0.21,5.66
27.9619779586792,2.11,6.2,-10.56,12.42
27.97896099090576,0.28,-0.13,-2.02,2.04
27.979928970336914,-0.81,2.69,7.35,7.86
27.995267868041992,1.33,1.6,3.8,4.33
28.01085901260376,3.09,-5.32,-10.67,12.31
28.012120962142944,-0.76,-7.05,-11.72,13.69
28.028666019439697,-1.54,-0.15,-4.18,4.45
28.029616832733154,0.32,4.34,-3.8,5.77
28.045928955078125,0.24,4.56,-4.83,6.64
28.061577796936035,-1.05,-0.55,-3.86,4.03
28.062865018844604,0.97,-3.87,1.65,4.31
28.07889199256897,1.73,-3.0,9.11,9.74
28.07986092567444,1.11,5.87,12.33,13.7
28.0950870513916,0.83,15.73,10.8,19.09
28.11107110977173,3.51,14.25,-0.31,14.67
28.112287998199463,0.79,-3.19,-12.47,12.89
28.12943983078003,-0.41,-9.51,-11.14,14.65
28.130364894866943,-0.5,-7.42,-1.4,7.56
28.144397974014282,-0.8,-6.66,2.1,7.02
28.160616874694824,-0.85,-4.84,-7.19,8.7
28.16205596923828,-2.88,-4.96,-10.77,12.2
28.17946195602417,-1.72,-6.54,0.64,6.79
28.180452823638916,-0.2,-4.64,13.79,14.55
28.19518804550171,3.36,-0.34,29.02,29.21
28.211087942123413,1.18,3.35,16.03,16.41
28.212299823760986,-0.28,6.12,1.73,6.36
28.22876501083374,2.31,6.29,-5.85,8.89
28.229705810546875,2.81,7.78,-18.27,20.05
28.244791984558105,-0.2,3.47,-19.14,19.45
28.260910034179688,-2.0,-0.49,-12.96,13.12
28.262128829956055,-1.36,-7.4,-7.66,10.73
28.279104948043823,-1.44,-8.45,-3.35,9.2
28.28008198738098,-0.91,-7.34,10.59,12.91
28.29563593864441,-0.35,-1.03,22.39,22.41
28.311820030212402,1.69,4.75,18.49,19.16
28.313087940216064,0.89,1.59,8.85,9.03
28.328768968582153,1.02,0.01,-19.41,19.43
28.32994294166565,0.63,-0.2,-23.6,23.6
28.345546007156372,-0.71,-2.04,-5.87,6.25
28.361238956451416,-1.8,-6.88,2.27,7.46
28.362499952316284,-2.12,-6.45,4.89,8.36
28.378626823425293,-0.31,-1.81,6.7,6.94
28.3797550201416,-1.07,6.57,3.2,7.38
28.394819974899292,-4.08,21.99,0.52,22.37
28.41067099571228,4.48,9.92,-3.86,11.54
28.41188383102417,0.9,-5.7,-4.93,7.58
28.42887306213379,-0.52,-8.14,0.42,8.16
28.429830074310303,0.48,-6.2,2.45,6.68
28.445520877838135,1.64,-3.8,-3.88,5.67
28.46128797531128,0.76,-1.61,2.35,2.94
28.462553024291992,0.97,-1.95,8.16,8.44
28.47841501235962,1.53,-2.66,6.45,7.14
28.479590892791748,1.73,0.07,-9.64,9.79
28.495494842529297,0.17,10.57,-19.73,22.38
28.511507987976074,2.03,6.0,-2.84,6.94
28.51289391517639,-0.91,-1.01,10.25,10.33
28.53010392189026,-2.5,3.08,14.26,14.8
28.53112292289734,-2.66,9.77,6.81,12.2
28.545624017715454,2.6,3.07,-11.4,12.08
28.561522006988525,1.07,-9.23,-9.34,13.17
28.5627760887146,-1.05,-7.81,0.52,7.89
28.578625917434692,0.08,-6.12,1.35,6.26
28.579866886138916,0.13,-7.84,-2.99,8.39
28.59559392929077,-0.9,-6.35,1.61,6.61
28.611891984939575,-0.71,-1.42,5.45,5.67
28.613131046295166,0.32,1.94,5.25,5.6
28.629436016082764,-0.57,5.1,3.95,6.47
28.630448818206787,-3.0,13.57,4.65,14.65
28.645564079284668,3.71,-6.36,-2.23,7.69
28.661219120025635,0.21,-7.24,-6.73,9.88
28.662513971328735,0.24,-2.7,1.6,3.14
28.678447008132935,-1.42,6.77,8.08,10.63
28.679698944091797,-0.79,19.61,-2.78,19.82
28.695663928985596,4.34,0.89,-12.3,13.07
28.7113938331604,-3.39,-4.93,-14.33,15.52
28.712657928466797,-0.72,-4.85,-8.14,9.5
28.728821992874146,0.61,-8.56,2.67,8.98
28.730000972747803,-0.5,-3.62,8.45,9.2
28.745556831359863,1.12,4.91,4.25,6.58
28.761537075042725,2.94,8.72,-0.5,9.21
28.762759923934937,3.57,4.59,3.25,6.66
28.778943061828613,1.15,3.4,-9.51,10.16
28.779944896697998,0.04,-7.92,-6.34,10.14
28.796637058258057,-1.59,-8.76,12.35,15.22
28.813136100769043,-1.35,-1.7,28.54,28.62
28.8143949508667,-1.04,3.91,11.94,12.6
28.828755855560303,0.32,-1.28,-7.69,7.8
28.8300518989563,-0.74,-4.27,-3.06,5.3
28.84545087814331,-0.05,4.93,-5.28,7.22
28.861403942108154,2.28,4.4,-14.79,15.59
28.862678050994873,-0.18,-5.44,-11.95,13.13
28.87953805923462,-1.16,-7.9,-5.16,9.5
28.88049292564392,-1.57,-5.55,-0.28,5.77
28.89535903930664,-0.22,4.78,0.41,4.8
28.91161298751831,0.15,16.36,-2.74,16.58
28.912892818450928,3.13,1.47,-1.09,3.62
28.92916202545166,1.21,-9.36,9.4,13.32
28.93013906478882,0.23,-6.01,13.59,14.86
28.946155071258545,0.61,0.31,11.46,11.48
28.96278691291809,0.35,8.73,2.8,9.17
28.964021921157837,3.02,12.59,0.83,12.97
28.978781938552856,4.12,1.96,-14.08,14.8
28.97971796989441,-1.51,-3.15,-20.8,21.09
28.99558401107788,-1.28,-8.16,-11.69,14.31
29.01140308380127,-0.61,-9.58,-4.53,10.61
29.012633800506592,-1.26,-7.69,9.76,12.48
29.02919602394104,-1.95,-8.02,17.44,19.29
29.030160903930664,-0.36,-1.99,10.75,10.93
29.046324014663696,1.42,-1.96,-3.52,4.27
29.06306505203247,-0.59,-1.28,-8.18,8.3
29.06434202194214,-0.03,1.05,-6.86,6.93
29.079461097717285,-0.3,15.66,0.32,15.66
29.08043599128723,1.68,-0.65,-1.28,2.2
29.09529995918274,0.72,-9.71,2.97,10.17
29.111534118652344,0.47,-2.42,-1.89,3.1
29.112753868103027,-3.27,17.46,-8.73,19.79
29.12911295890808,2.82,11.91,0.48,12.24
29.130066871643066,1.97,-7.62,10.72,13.29
29.148216009140015,-0.26,-6.88,14.79,16.31
29.16515302658081,2.96,0.72,1.97,3.62
29.166380882263184,2.55,-2.85,-5.11,6.38
29.17928981781006,0.86,-6.73,-0.62,6.81
29.180222034454346,1.87,-3.5,0.39,3.98
29.19534683227539,0.78,-0.08,-6.76,6.8
29.21128797531128,-1.5,-3.02,-8.39,9.04
29.212628841400146,-1.63,0.71,-5.19,5.48
29.22925901412964,-1.27,0.93,-0.22,1.58
29.23023509979248,-0.77,-4.45,6.8,8.16
29.245469093322754,1.12,-2.08,18.94,19.08
29.26224398612976,1.19,4.36,15.62,16.26
29.263455867767334,1.87,19.29,-0.9,19.4
29.279000997543335,6.12,18.65,-13.63,23.89
29.27996301651001,0.96,-3.85,-13.7,14.26
29.29629898071289,-0.55,-8.47,-4.49,9.6
29.31301999092102,-1.32,-7.36,-1.47,7.62
29.314273834228516,-1.84,-7.95,-5.48,9.82
29.329412937164307,-2.28,-8.32,-10.93,13.92
29.33035898208618,-2.67,-0.05,-8.1,8.52
29.34581708908081,-0.8,3.28,0.75,3.45
29.362205982208252,-0.98,-0.91,6.77,6.9
29.36358094215393,0.49,0.53,-0.54,0.9
29.379788875579834,0.92,1.78,-6.1,6.42
29.380741119384766,1.95,-3.98,9.26,10.26
29.39586901664734,2.86,-0.53,18.56,18.78
29.411888122558594,-0.23,8.58,5.71,10.3
29.413126945495605,2.4,14.26,-16.31,21.79
29.429364919662476,3.03,-4.75,-9.4,10.95
29.430325031280518,-0.26,-10.57,5.82,12.06
29.446347951889038,-2.15,-4.13,8.5,9.69
29.462748050689697,-3.75,6.78,-0.66,7.77
29.463984966278076,-0.38,-0.77,-9.31,9.34
29.479139804840088,0.9,-8.15,1.84,8.4
29.480093955993652,0.01,-5.55,7.62,9.42
29.495280981063843,-0.57,1.55,2.47,2.97
29.51163387298584,-1.11,7.12,-0.62,7.23
29.512895107269287,2.43,-2.41,2.78,4.4
29.530579090118408,2.65,-6.1,1.81,6.89
29.531615018844604,3.96,-4.31,2.36,6.31
29.54540491104126,2.91,-1.0,2.63,4.04
29.561909914016724,1.07,3.12,2.12,3.92
29.56303596496582,-0.3,8.86,0.84,8.9
29.580397129058838,-1.6,13.29,-7.58,15.38
29.58136296272278,-0.06,0.44,-5.25,5.26
29.595458984375,-0.05,-8.05,0.83,8.09
29.611933946609497,0.1,-5.73,4.22,7.11
29.613152027130127,1.92,-1.37,-0.11,2.36
29.63062810897827,2.95,2.77,-13.61,14.19
29.631577968597412,2.23,-4.31,-3.04,5.72
29.64520502090454,1.13,-8.21,9.69,12.75
29.661561965942383,-0.45,-6.18,8.85,10.8
29.66285991668701,0.35,-0.38,-9.29,9.3
29.68067502975464,-0.71,9.2,-14.52,17.2
29.68163800239563,1.87,2.62,-5.43,6.31
29.696274995803833,1.06,-6.73,-1.08,6.89
29.712843894958496,-1.46,-3.5,-5.56,6.73
29.71406602859497,-1.22,7.31,-3.78,8.31
29.7309889793396,4.28,6.21,13.68,15.62
29.732056140899658,6.93,-0.79,20.26,21.42
29.74662494659424,-1.44,-2.74,19.2,19.44
29.76234197616577,1.74,2.9,-5.56,6.5
29.76364278793335,1.52,7.52,-28.28,29.3
29.77944803237915,2.6,-2.08,-12.11,12.55
29.78040885925293,2.8,-7.12,2.46,8.03
29.795384883880615,0.66,-6.15,4.79,7.82
29.811180114746094,1.48,-4.12,6.74,8.03
29.812499046325684,2.07,1.37,5.87,6.37
29.83020305633545,3.18,5.96,-0.54,6.77
29.831185817718506,6.07,4.59,-0.13,7.61
29.84607696533203,4.7,-1.26,2.21,5.34
29.86215901374817,3.61,-2.47,3.26,5.45
