time,ax,ay,az,atotal
0.010698795318603516,0.28,-0.33,0.15,0.45
0.012949943542480469,0.27,-0.39,0.34,0.58
0.025218963623046875,0.15,-0.36,0.11,0.4
0.032814979553222656,0.43,-0.31,-0.17,0.55
0.04314374923706055,0.29,-0.25,-0.34,0.51
0.052886962890625,-0.25,0.06,-0.31,0.4
0.06302690505981445,-0.57,0.55,-0.88,1.18
0.07537698745727539,0.39,-0.27,-0.2,0.51
0.08233499526977539,-0.33,0.59,0.72,0.98
0.09273195266723633,-1.08,1.11,-1.95,2.49
0.10246801376342773,1.24,-1.34,0.71,1.95
0.11238694190979004,1.86,-3.5,1.39,4.2
0.12459087371826172,-0.72,-1.88,3.07,3.67
0.13246393203735352,-1.93,0.51,-1.12,2.28
0.14235305786132812,0.41,2.08,-1.85,2.81
0.15275287628173828,0.17,2.12,-3.11,3.76
0.16223597526550293,-1.13,1.02,-0.41,1.57
0.1739358901977539,-0.89,-0.69,0.72,1.33
0.18189692497253418,0.45,-1.71,1.8,2.52
0.19204378128051758,0.16,-1.64,1.36,2.13
0.2017209529876709,-0.85,-0.33,0.65,1.11
0.21200990676879883,-0.61,0.68,-0.85,1.24
0.22426891326904297,0.07,1.1,-1.58,1.92
0.23144197463989258,-0.12,0.71,-1.15,1.35
0.2422959804534912,-0.42,-0.11,0.05,0.43
0.25183582305908203,0.08,-0.84,0.91,1.24
0.2618570327758789,0.5,-1.16,1.04,1.63
0.2727217674255371,0.34,-0.79,0.64,1.07
0.28161096572875977,0.04,-0.14,-0.39,0.41
0.29173803329467773,0.47,-0.02,-1.17,1.26
0.30130696296691895,1.08,0.07,-1.36,1.73
0.3115720748901367,0.76,-0.14,-0.39,0.86
0.32226085662841797,0.42,-0.78,0.73,1.14
0.33113574981689453,0.55,-0.62,1.06,1.34
0.34120893478393555,0.55,-0.81,0.76,1.23
0.3511800765991211,0.18,0.21,0.05,0.28
0.3612208366394043,-0.13,0.33,-0.25,0.43
0.37256789207458496,-0.36,0.78,0.84,1.2
0.38074398040771484,-0.75,-0.09,3.17,3.25
0.391326904296875,-0.81,-0.77,2.52,2.75
0.40047287940979004,0.44,-0.19,0.07,0.48
0.4109940528869629,0.43,1.92,-1.37,2.39
0.42190074920654297,-0.56,1.5,-2.24,2.75
0.43091893196105957,0.07,0.37,-2.84,2.86
0.4407768249511719,1.03,1.07,-2.99,3.33
0.4505300521850586,0.61,0.87,-2.2,2.44
0.46083879470825195,0.26,0.95,-0.26,1.01
0.47321510314941406,0.88,-0.15,-0.04,0.89
0.48062896728515625,1.42,-0.58,0.15,1.54
0.49042797088623047,0.73,0.37,-0.24,0.85
0.5008149147033691,-0.65,1.46,-0.04,1.59
0.5104489326477051,-0.64,1.23,-0.73,1.56
0.5218589305877686,0.77,0.67,0.15,1.03
0.5299429893493652,0.63,0.26,1.0,1.21
0.5400769710540771,-1.15,1.06,2.25,2.74
0.5502810478210449,-1.8,1.6,0.06,2.4
0.5603017807006836,-0.5,2.16,-0.92,2.4
0.5715279579162598,0.19,2.11,-2.52,3.29
0.579740047454834,-0.41,2.5,-2.78,3.76
0.5901858806610107,-0.45,2.32,-3.33,4.08
0.5994300842285156,0.72,2.09,-3.54,4.17
0.6101729869842529,0.96,1.88,-1.24,2.44
0.6216020584106445,-0.28,1.98,-0.62,2.09
0.6295208930969238,-0.52,2.05,-0.69,2.22
0.6440889835357666,0.84,2.02,-1.0,2.4
0.6491608619689941,0.85,2.38,-1.85,3.13
0.6597769260406494,-0.61,2.59,-1.26,2.94
0.6710319519042969,-0.84,2.4,-0.95,2.71
0.6790480613708496,0.0,1.97,-1.09,2.25
0.6903319358825684,0.25,1.98,-0.36,2.02
0.6994318962097168,-0.56,2.59,0.2,2.65
0.7094688415527344,-1.15,2.9,-0.01,3.11
0.720952033996582,-0.54,2.92,-0.56,3.02
0.7289180755615234,-0.71,3.05,-0.7,3.2
0.7448058128356934,-2.21,3.28,-0.31,3.96
0.7486269474029541,-2.35,2.26,-0.55,3.3
0.7591719627380371,-1.44,1.78,-1.23,2.59
0.7708487510681152,-1.58,2.21,-0.87,2.85
0.7786130905151367,-1.95,2.78,-1.06,3.55
0.7894210815429688,-1.04,3.26,-1.38,3.68
0.7988600730895996,-0.05,2.91,-2.3,3.7
0.8089127540588379,-0.34,3.36,-2.42,4.15
0.8202369213104248,-1.64,3.03,-1.83,3.9
0.8287358283996582,-2.13,2.49,-1.75,3.71
0.8385810852050781,-1.4,2.19,-2.66,3.71
0.8488469123840332,-0.22,2.01,-2.37,3.11
0.8585958480834961,1.16,3.2,0.25,3.41
0.8702940940856934,-0.06,4.54,-1.86,4.9
0.8781609535217285,-3.18,3.7,0.02,4.87
0.8881731033325195,-4.26,3.67,-0.84,5.68
0.8977699279785156,-2.24,2.87,-1.5,3.93
0.9082748889923096,-0.8,1.91,-2.37,3.14
0.9200649261474609,-1.45,2.31,-1.82,3.27
0.9278240203857422,-2.56,3.38,-1.31,4.43
0.9382648468017578,-1.58,3.84,-0.89,4.24
0.9478139877319336,-1.56,4.62,-0.59,4.91
0.9582169055938721,-3.29,5.1,-0.63,6.1
0.970505952835083,-3.75,3.77,-1.02,5.41
0.9779567718505859,-2.22,2.95,-0.1,3.69
0.9879360198974609,-0.64,2.64,-1.82,3.26
0.9977540969848633,0.01,2.43,-2.14,3.23
1.0078299045562744,-0.36,2.63,-1.85,3.23
1.019364833831787,-1.36,3.21,-3.11,4.67
1.0275440216064453,-1.93,3.72,-3.07,5.19
1.0376410484313965,-0.91,2.21,-3.66,4.37
1.0473079681396484,1.73,3.13,-4.76,5.95
1.0575449466705322,3.19,1.49,-6.25,7.17
1.0694937705993652,0.65,2.01,-3.64,4.2
1.077152967453003,-2.08,3.46,-2.63,4.81
1.0877299308776855,1.72,-0.13,-6.48,6.7
1.0968959331512451,6.45,-0.99,-4.79,8.09
1.1076929569244385,5.43,0.8,-2.15,5.89
1.1198110580444336,1.71,4.06,1.1,4.54
1.126749038696289,0.94,2.25,-0.69,2.53
1.137044906616211,-0.6,-1.03,-1.44,1.86
1.146711826324463,-3.18,-2.99,1.57,4.63
1.157066822052002,-2.29,-5.62,0.3,6.07
1.1691460609436035,0.65,-7.39,5.1,9.0
1.1766228675842285,-0.51,-5.39,4.85,7.26
1.1869709491729736,-4.22,-3.44,7.01,8.87
1.1971049308776855,-4.56,-0.7,5.59,7.24
1.2068300247192383,-2.16,3.2,3.17,4.99
1.2192378044128418,-0.75,1.71,0.73,2.0
1.2263209819793701,1.34,2.73,0.28,3.05
1.2363898754119873,2.43,2.57,3.39,4.89
1.2460989952087402,1.66,-0.24,3.18,3.59
1.25653076171875,1.74,0.1,0.49,1.81
1.2683379650115967,3.65,-2.69,-0.44,4.55
1.2761988639831543,4.28,-0.53,-3.02,5.26
1.2862367630004883,3.98,1.11,-4.43,6.05
1.2958850860595703,4.78,-0.23,-3.94,6.19
1.3067049980163574,5.53,0.45,-1.75,5.81
1.3191118240356445,4.95,1.77,0.8,5.31
1.325963020324707,3.71,0.13,-0.15,3.71
1.3360300064086914,4.87,-1.03,-0.88,5.05
1.3455379009246826,4.54,0.33,-1.05,4.67
1.355909824371338,3.21,-3.18,-1.44,4.74
1.3679008483886719,2.73,-4.24,-1.41,5.23
1.3756370544433594,3.67,-3.43,0.42,5.04
1.3855299949645996,2.88,-0.83,-1.94,3.57
1.3956208229064941,-0.29,-0.73,1.85,2.0
1.405709981918335,-3.09,-0.02,2.34,3.87
1.4174799919128418,-1.74,0.39,-0.02,1.78
1.425610065460205,3.09,-0.63,0.32,3.16
1.4353039264678955,6.36,-1.32,0.92,6.56
1.4450209140777588,3.4,-2.82,1.33,4.61
1.4553449153900146,-2.67,1.06,2.42,3.75
1.4669709205627441,-6.48,0.81,1.08,6.61
1.475027084350586,-6.05,-1.16,-1.84,6.42
1.4848880767822266,-3.08,-1.87,-3.78,5.22
1.4951610565185547,0.42,-3.19,-3.76,4.94
1.505213975906372,2.95,-2.22,-3.65,5.19
1.517045021057129,2.02,-2.37,0.25,3.12
1.5251538753509521,0.19,-3.06,1.92,3.61
1.5344219207763672,-0.18,-1.6,4.61,4.88
1.5452260971069336,0.47,-0.95,6.15,6.24
1.5545539855957031,-0.09,-4.87,2.95,5.69
1.5660500526428223,0.45,-6.28,-1.23,6.41
1.5746939182281494,1.22,-3.63,-2.79,4.73
1.584472894668579,0.25,-0.17,0.19,0.35
1.5945258140563965,-1.24,1.3,2.39,2.98
1.6044278144836426,3.39,-0.46,2.83,4.43
1.6161608695983887,9.79,-0.16,-0.87,9.82
1.6244168281555176,9.39,2.98,-0.19,9.85
1.633908987045288,3.52,3.16,0.69,4.78
1.644547939300537,1.92,2.6,-1.58,3.59
1.6546409130096436,3.56,1.18,-0.69,3.81
1.6665058135986328,-1.74,2.73,2.46,4.06
1.6743929386138916,-2.45,-2.57,0.77,3.63
1.6837029457092285,10.13,-2.02,4.55,11.28
1.6943187713623047,16.92,-2.77,-4.34,17.68
1.703859806060791,6.26,-0.92,-1.84,6.58
1.71539306640625,-9.06,4.65,6.09,11.86
1.7240219116210938,-10.18,-2.16,1.71,10.54
1.7334117889404297,2.95,-3.77,0.09,4.78
1.7440338134765625,4.24,-2.93,-0.22,5.15
1.7536530494689941,-7.3,-2.14,4.28,8.72
1.7657749652862549,-6.88,0.09,3.09,7.54
1.773493766784668,6.94,-3.87,3.01,8.49
1.7834138870239258,8.89,-4.25,-2.57,10.18
1.7937660217285156,-5.59,-3.36,2.58,7.01
1.8036949634552002,-10.62,-3.48,1.7,11.3
1.8155739307403564,-0.31,0.58,-0.41,0.77
1.8237149715423584,5.77,0.14,-2.12,6.14
1.8331329822540283,-1.72,1.59,-0.4,2.37
1.8434538841247559,-9.03,9.15,3.71,13.38
1.8528528213500977,-5.6,8.51,-0.11,10.18
1.8644990921020508,2.48,7.16,-2.24,7.9
1.8735418319702148,6.02,5.06,-3.87,8.76
1.8826780319213867,3.87,4.93,-0.18,6.27
1.8936688899993896,-0.35,2.99,2.24,3.75
1.9027678966522217,-3.51,1.61,3.18,5.0
1.9145119190216064,-2.56,-0.72,0.66,2.74
1.9235429763793945,-0.76,-3.44,-4.31,5.56
1.9329099655151367,-2.18,-2.71,-1.94,3.98
1.9427978992462158,-4.32,-1.76,1.21,4.81
1.9523799419403076,-2.26,-0.92,0.88,2.59
1.9646048545837402,2.14,-2.19,-0.87,3.18
1.973066806793213,3.26,-0.83,-0.75,3.44
1.9820549488067627,1.15,1.42,-1.46,2.33
1.9926519393920898,0.71,2.36,-2.0,3.17
2.0026118755340576,2.82,3.15,-0.69,4.28
2.014586925506592,4.12,2.25,-1.46,4.91
2.0230698585510254,3.75,1.78,-2.36,4.77
2.0317959785461426,3.09,1.27,-2.88,4.41
2.042375087738037,1.62,1.87,-1.22,2.75
2.052212953567505,-0.17,2.39,-0.02,2.39
2.0647687911987305,0.15,-1.08,-1.59,1.92
2.072159767150879,0.44,-0.17,-1.09,1.18
2.0817999839782715,-0.9,0.8,0.86,1.47
2.0923659801483154,-1.81,2.01,-1.86,3.28
2.10188889503479,-1.09,1.37,-0.97,2.0
2.1135950088500977,0.9,-0.54,-3.09,3.26
2.1220030784606934,0.77,2.89,-2.1,3.65
2.1318349838256836,-2.7,5.18,-0.85,5.9
2.141939878463745,-3.59,1.09,2.45,4.48
2.1517958641052246,0.61,1.81,-0.93,2.12
2.163969039916992,1.56,2.09,-1.93,3.24
2.171536922454834,-2.58,2.85,-0.24,3.85
2.181324005126953,-3.33,1.46,-1.72,4.02
2.1915628910064697,0.15,0.91,-0.66,1.13
2.2012879848480225,1.38,2.8,-1.05,3.29
2.2132608890533447,-2.07,3.7,-0.59,4.28
2.2217769622802734,-2.67,1.67,-0.2,3.15
2.2309107780456543,1.02,-0.19,-1.05,1.47
2.241694927215576,1.1,1.64,-2.11,2.88
2.2510628700256348,-2.11,0.97,0.26,2.33
2.2631208896636963,-2.17,0.9,0.25,2.36
2.2708349227905273,0.04,0.61,-1.84,1.93
2.2807960510253906,-0.28,1.66,-1.6,2.32
2.2911229133605957,-1.71,1.68,-2.72,3.62
2.300543785095215,-1.44,1.88,-3.48,4.2
2.3128747940063477,-0.39,0.89,-0.28,1.01
2.320744037628174,0.39,0.28,-0.16,0.5
2.3309760093688965,-0.2,1.85,0.76,2.01
2.3410539627075195,-1.28,0.0,-0.37,1.33
2.350538969039917,-0.34,-1.03,1.16,1.58
2.362734794616699,0.27,-0.07,-1.38,1.4
2.3705620765686035,-1.07,1.14,-0.86,1.78
2.380246877670288,-2.11,0.76,0.64,2.33
2.39083194732666,0.1,0.44,-0.07,0.45
2.4003148078918457,-0.03,0.2,-3.69,3.69
2.4120640754699707,-1.69,0.7,1.21,2.19
2.4201908111572266,-2.0,0.67,-0.06,2.11
2.4297471046447754,-0.85,0.96,0.59,1.41
2.4407567977905273,-1.34,1.11,-1.91,2.58
2.449821949005127,-1.54,0.06,-1.19,1.94
2.462578773498535,-0.92,0.32,-0.52,1.1
2.4696578979492188,-0.39,1.15,-1.05,1.6
2.4798970222473145,-1.23,1.22,1.26,2.14
2.4904580116271973,-1.91,1.26,1.76,2.88
2.4994378089904785,-1.35,1.32,-1.34,2.31
2.511654853820801,-0.79,0.51,-1.46,1.73
2.519394874572754,0.13,0.38,-2.07,2.1
2.5291309356689453,-0.56,1.01,-2.61,2.85
2.540092945098877,-2.34,1.55,1.8,3.33
2.548917770385742,-2.93,0.95,1.89,3.61
2.561244010925293,-2.49,1.21,-0.26,2.78
2.5689969062805176,-2.32,0.94,-1.4,2.86
2.578983783721924,-1.2,0.08,-1.59,1.99
2.5901360511779785,-1.36,0.44,-0.58,1.54
2.599018096923828,-3.41,-0.83,2.56,4.34
2.611496925354004,-4.07,-1.35,3.81,5.73
2.6188108921051025,-2.14,-0.16,3.24,3.88
2.6288070678710938,-0.56,-0.41,1.88,2.0
2.638885021209717,-1.38,0.25,-2.85,3.17
2.648742914199829,-2.34,-0.13,-1.21,2.63
2.66158390045166,-1.91,1.08,-0.46,2.24
2.6682910919189453,-2.33,0.82,1.85,3.08
2.678736925125122,-3.58,1.66,1.26,4.14
2.688469886779785,-3.3,1.26,-1.54,3.85
2.6984810829162598,-2.04,1.31,0.52,2.47
2.710742950439453,-0.62,1.24,-0.24,1.4
2.718380928039551,0.03,1.28,0.75,1.48
2.7282848358154297,0.48,2.27,-3.02,3.8
2.738574981689453,0.02,0.47,-0.02,0.47
2.748236894607544,-2.71,3.07,5.65,6.97
2.7607169151306152,-3.75,2.17,4.44,6.2
2.7677149772644043,-0.8,2.36,-3.55,4.33
2.778059959411621,0.15,2.21,-7.86,8.16
2.7878308296203613,-2.59,0.52,-3.55,4.42
2.7979469299316406,-3.62,-0.93,1.05,3.88
2.810443878173828,-1.65,1.82,0.08,2.45
2.8178300857543945,-2.68,1.03,2.03,3.51
2.8280749320983887,-5.57,2.38,4.42,7.49
2.8375988006591797,-1.53,-1.07,0.76,2.01
2.847960948944092,4.79,-1.78,-3.03,5.94
2.860590934753418,0.59,2.15,-0.65,2.32
2.8674497604370117,-7.85,3.65,0.28,8.66
2.8778510093688965,-6.26,-0.08,-1.6,6.46
2.887676954269409,-0.17,-5.42,0.93,5.5
2.8971619606018066,-1.49,-4.65,5.43,7.3
2.909501075744629,-3.57,-1.61,7.38,8.35
2.916996955871582,0.78,0.74,-6.68,6.76
2.9273200035095215,2.59,-5.75,2.2,6.67
2.937248945236206,-2.66,-0.36,1.61,3.13
2.9472107887268066,-3.64,2.05,-0.83,4.25
2.959362030029297,1.61,-0.21,-0.67,1.75
2.9666190147399902,3.7,-2.06,-1.62,4.53
2.977457046508789,1.12,-0.99,0.99,1.79
2.987009048461914,-0.35,1.28,2.81,3.1
2.9975857734680176,-0.05,2.1,-0.4,2.13
3.010326862335205,-1.36,5.41,0.26,5.58
3.016512870788574,-3.74,1.05,-3.48,5.21
3.0268988609313965,-2.51,3.1,-2.15,4.53
3.036961078643799,0.36,1.73,-3.31,3.75
3.046724796295166,1.75,0.26,-0.83,1.95
3.059426784515381,-0.26,1.48,1.42,2.06
3.0667688846588135,-3.12,0.44,3.67,4.83
3.076624870300293,-3.65,3.27,1.88,5.24
3.0868818759918213,-1.55,2.99,-0.4,3.39
3.0966479778289795,-0.41,2.11,-2.64,3.4
3.109041929244995,-1.66,0.68,-0.81,1.96
3.1160287857055664,-3.72,2.33,-0.54,4.42
3.126370906829834,-4.15,2.58,0.79,4.95
3.1365458965301514,-3.93,1.33,2.08,4.64
3.1460371017456055,-4.15,0.89,2.35,4.85
3.1586859226226807,-4.77,2.11,0.44,5.23
3.1657299995422363,-5.13,2.28,0.06,5.61
3.176665782928467,-5.0,0.84,0.13,5.07
3.185823917388916,-5.39,1.3,0.51,5.56
3.196268081665039,-5.92,0.43,0.39,5.94
3.2088217735290527,-5.44,0.62,-0.03,5.47
3.2158827781677246,-4.58,-0.69,-0.63,4.67
3.2256009578704834,-4.17,-0.2,0.93,4.27
3.2355079650878906,-4.3,-1.24,1.72,4.79
3.245823860168457,-4.07,-2.85,2.87,5.73
3.2591137886047363,-2.27,-0.5,2.43,3.36
3.2650227546691895,-1.01,-0.02,0.93,1.37
3.275580883026123,-0.32,-1.39,1.01,1.74
3.2850139141082764,-0.33,-3.44,-0.22,3.46
3.295564889907837,-1.33,-0.76,0.36,1.57
3.308590888977051,-1.19,0.26,0.67,1.39
3.3148598670959473,1.16,-1.01,1.83,2.39
3.3256077766418457,0.19,-1.37,4.26,4.47
3.334953784942627,-3.89,-0.36,2.13,4.44
3.345512866973877,-3.43,0.22,1.36,3.69
3.358841896057129,1.51,-0.9,-3.22,3.66
3.364645004272461,2.91,0.86,-1.47,3.37
3.375180959701538,-1.27,0.63,3.73,3.99
3.384622097015381,-3.59,1.99,0.7,4.16
3.3951587677001953,0.74,0.87,0.75,1.36
3.4081308841705322,2.83,2.18,-4.08,5.42
3.4146668910980225,0.48,2.47,-2.73,3.71
3.4245457649230957,-2.06,0.55,-1.77,2.77
3.434957981109619,-1.13,2.38,-1.75,3.16
3.444823980331421,0.62,0.8,-0.02,1.01
3.4578957557678223,0.42,0.02,-0.16,0.44
3.4640889167785645,0.07,0.87,0.83,1.2
3.4745640754699707,-0.04,-2.95,-0.95,3.09
3.4841558933258057,-0.46,-1.3,0.0,1.37
3.4946279525756836,0.47,-0.69,1.17,1.43
3.507497787475586,2.66,-3.37,3.32,5.42
3.5138518810272217,2.18,-5.46,0.92,5.95
3.5282249450683594,-0.15,0.88,-1.79,2.0
3.533777952194214,0.72,2.04,-2.4,3.23
3.5445549488067627,2.94,-4.93,-3.68,6.81
3.5569310188293457,0.52,-0.47,-2.43,2.52
3.5637760162353516,-0.32,-1.47,0.15,1.51
3.574014902114868,4.29,-2.14,-0.45,4.81
3.5836029052734375,6.33,-3.43,-0.74,7.23
3.59401798248291,0.57,-0.75,-0.01,0.94
3.607167959213257,-3.18,1.43,4.86,5.98
3.6134800910949707,1.51,0.46,-2.8,3.21
3.627717971801758,4.92,1.42,-4.26,6.66
3.633349895477295,0.89,-0.05,-2.24,2.41
3.6437909603118896,-2.24,3.6,-2.43,4.88
3.6572318077087402,2.24,-0.34,1.34,2.63
3.663938045501709,4.5,1.22,0.04,4.66
3.6789469718933105,-0.52,3.46,2.21,4.13
3.6834540367126465,-4.17,2.88,-4.08,6.5
3.6940178871154785,-1.83,2.69,-6.47,7.24
3.714021921157837,1.81,-2.82,-0.61,3.4
3.71917986869812,1.28,1.08,1.83,2.48
3.7268447875976562,-0.88,3.79,1.71,4.25
3.733513832092285,-1.26,-0.48,0.95,1.64
3.7438530921936035,0.24,-0.01,3.23,3.23
3.7617928981781006,0.94,1.37,-7.43,7.61
3.7657389640808105,1.98,1.45,-1.69,2.97
3.7739458084106445,0.77,-0.7,1.57,1.88
3.7835497856140137,0.73,-1.77,3.79,4.24
3.793278932571411,0.85,-1.51,-2.34,2.91
3.8113160133361816,0.13,-1.27,3.31,3.54
3.813788890838623,0.41,1.2,1.48,1.94
3.827633857727051,1.31,-0.97,1.28,2.07
3.8322768211364746,-2.11,-0.45,-1.65,2.71
3.8425989151000977,-4.73,-1.98,-1.22,5.27
3.8568949699401855,-2.94,-5.27,-0.47,6.05
3.861952781677246,0.05,-2.59,-2.29,3.45
3.8723669052124023,-1.44,-1.31,-1.01,2.19
3.8824100494384766,-1.05,1.6,3.38,3.88
3.892519950866699,3.45,1.82,3.27,5.08
3.906949043273926,4.62,1.97,2.77,5.73
3.9122700691223145,-1.26,6.64,-8.72,11.03
3.921855926513672,-2.66,1.99,-4.73,5.78
3.9322500228881836,2.04,-2.14,-0.22,2.96
3.942068099975586,4.12,1.05,-1.86,4.64
3.957587957382202,0.45,1.81,-4.33,4.71
3.961453914642334,1.1,-1.79,6.04,6.39
3.9716789722442627,4.45,-2.65,16.31,17.11
3.981379985809326,4.12,4.27,8.58,10.43
3.9915738105773926,0.07,5.93,4.23,7.28
4.005507946014404,-1.86,2.13,-18.49,18.7
4.01121187210083,-1.34,0.71,-16.5,16.56
4.021560907363892,3.04,-4.24,-7.45,9.09
4.031243801116943,1.99,-2.17,-5.37,6.12
4.041554927825928,1.85,-5.89,6.79,9.17
4.0560009479522705,0.66,-0.73,1.1,1.47
4.060940980911255,2.89,-2.18,7.13,7.99
4.071183919906616,2.21,1.71,-5.07,5.78
4.080782890319824,-1.29,2.42,-1.1,2.95
4.091023921966553,-1.28,-10.97,9.94,14.85
4.105144023895264,4.23,2.87,1.17,5.24
4.110779762268066,4.19,-0.45,-4.7,6.31
4.120686054229736,2.21,-5.39,-5.7,8.15
4.131126880645752,6.04,-2.32,1.39,6.61
4.141033887863159,8.96,-1.4,-7.43,11.72
4.156061887741089,3.67,-0.77,-0.21,3.75
4.1604039669036865,-1.97,2.38,5.83,6.59
4.170821905136108,-0.86,1.95,-1.86,2.82
4.180339813232422,4.11,-11.06,7.97,14.23
4.190576076507568,3.28,2.48,-0.69,4.16
4.204379081726074,-1.2,5.37,-3.03,6.28
4.210117816925049,-2.33,-2.39,-14.61,14.98
4.220416069030762,2.5,-3.26,-3.09,5.14
4.230043888092041,6.01,-0.79,-0.68,6.09
4.240227937698364,-1.11,8.06,-0.71,8.16
4.254503965377808,-4.42,1.93,13.0,13.86
4.260045051574707,2.96,-2.56,0.92,4.02
4.269964933395386,6.05,4.82,0.8,7.77
4.28024697303772,-1.33,4.83,-2.81,5.74
4.2902607917785645,-5.19,4.23,0.03,6.69
4.303896903991699,2.97,-4.27,-0.92,5.28
4.309939861297607,8.7,-4.78,1.21,10.0
4.3199238777160645,0.52,10.17,0.72,10.2
4.32968282699585,-6.77,6.66,7.82,12.3
4.339888095855713,1.74,-10.09,-2.45,10.52
4.353993892669678,9.21,0.72,-7.76,12.06
4.359370946884155,0.04,7.28,-3.0,7.87
4.3695878982543945,-9.02,3.42,15.82,18.52
4.3792009353637695,-1.53,-4.8,-1.04,5.14
4.389879941940308,7.76,-1.94,-5.78,9.86
4.403227806091309,3.07,1.47,-6.73,7.54
4.409571886062622,-1.09,-2.28,7.58,7.99
4.419003963470459,4.28,-7.64,8.0,11.86
4.429714918136597,7.38,2.27,-4.95,9.17
4.439271926879883,-2.02,-1.08,1.55,2.76
4.452757835388184,-3.93,-3.25,12.37,13.37
4.458980083465576,-0.78,2.23,-3.04,3.85
4.4688239097595215,4.26,-1.02,4.13,6.02
4.479046821594238,-0.57,2.65,-6.6,7.13
4.489382982254028,-5.53,9.54,0.01,11.02
4.503302097320557,-3.22,5.74,-1.37,6.72
4.508831977844238,2.82,-1.93,-3.59,4.95
4.518828868865967,0.81,3.12,-6.45,7.21
4.528731822967529,-4.08,3.02,3.14,5.96
4.5390520095825195,-3.42,10.16,6.96,12.78
4.5523200035095215,-0.26,4.59,2.44,5.2
4.558344841003418,1.68,-2.96,0.19,3.4
4.5683817863464355,1.61,-3.67,-9.59,10.39
4.578463077545166,-0.8,3.48,-2.85,4.56
4.588581085205078,-3.49,11.84,0.76,12.36
4.602187871932983,-0.56,-10.9,10.04,14.82
4.608088970184326,5.67,0.91,0.06,5.74
4.61796498298645,0.77,14.26,-9.78,17.3
4.6287760734558105,-7.77,-4.12,-5.72,10.49
4.6382739543914795,-2.31,-4.55,-1.56,5.33
4.652605056762695,8.6,-1.5,-4.7,9.91
4.658044815063477,4.17,-1.03,3.96,5.84
4.668240070343018,-5.64,-4.26,9.74,12.03
4.678015947341919,-2.11,-5.42,-1.24,5.94
4.688474893569946,2.36,0.96,-7.68,8.09
4.702257871627808,-2.14,4.76,2.25,5.68
4.70789098739624,-0.03,-4.13,2.82,5.0
4.717444896697998,9.7,-10.68,-3.65,14.88
4.727717876434326,5.36,-0.22,-1.15,5.48
4.737510919570923,-6.95,7.96,-6.32,12.31
4.7513649463653564,-6.1,7.06,4.18,10.22
4.758102893829346,4.04,-3.34,4.32,6.79
4.767098903656006,14.18,-7.75,1.2,16.2
4.77794885635376,-1.41,8.1,-11.36,14.02
4.787390947341919,-7.35,8.88,-3.12,11.94
4.801063060760498,2.33,-4.4,-2.61,5.62
4.807923793792725,13.71,-1.51,1.28,13.85
4.8169779777526855,4.88,-0.57,5.07,7.06
4.827392101287842,-4.73,-2.0,0.81,5.19
4.836928844451904,-1.8,11.15,-7.08,13.33
4.850650787353516,7.83,-7.38,2.05,10.95
4.8575708866119385,6.93,-6.34,-9.38,13.27
4.866914749145508,-1.24,7.09,6.47,9.67
4.8771209716796875,-3.64,0.58,3.86,5.33
4.886862754821777,1.48,-2.85,4.99,5.93
4.9003190994262695,4.03,-3.37,-8.2,9.73
4.90683388710022,0.88,0.23,-2.12,2.3
4.916306972503662,-1.53,-0.38,-0.5,1.65
4.926918983459473,-1.05,1.04,4.53,4.76
4.937229871749878,-0.25,1.39,-0.73,1.58
4.951665878295898,-1.64,0.53,6.33,6.56
4.9563188552856445,-0.31,-6.68,1.07,6.77
4.966479778289795,1.33,-0.57,2.59,2.96
4.976926803588867,-0.51,4.21,0.32,4.25
4.986454010009766,-1.58,0.7,1.03,2.01
5.0005879402160645,1.19,0.56,-1.7,2.14
5.0060858726501465,3.92,5.51,-2.52,7.21
5.016371965408325,1.91,-0.02,-3.26,3.77
5.026181936264038,-0.68,3.84,-4.71,6.11
5.035926818847656,-0.45,8.49,-1.49,8.63
5.049854755401611,2.34,-3.87,3.19,5.53
5.055862903594971,4.02,-1.45,1.12,4.41
5.0654988288879395,1.41,8.81,-9.03,12.69
5.075840950012207,-1.45,4.14,-5.12,6.74
5.085827827453613,0.03,-4.79,3.24,5.78
5.099496841430664,4.35,-2.7,7.92,9.43
5.105833053588867,1.53,5.29,1.46,5.69
5.1156229972839355,-3.57,-0.71,1.07,3.79
5.126163959503174,-0.95,-6.4,-0.66,6.5
5.13512396812439,3.84,-4.59,-4.95,7.76
5.149809837341309,-0.77,0.32,-6.12,6.17
5.155272960662842,-5.08,5.2,1.15,7.35
5.1655497550964355,-0.12,-7.46,5.3,9.15
5.175168037414551,6.66,-5.03,0.58,8.36
5.185941934585571,2.37,4.68,1.65,5.49
5.200345993041992,-5.88,3.49,-2.52,7.28
5.204999923706055,-5.87,1.78,3.8,7.21
5.215147018432617,3.44,-3.79,2.32,5.61
5.2254180908203125,6.81,-1.14,-1.73,7.11
5.235074996948242,-1.05,5.12,-5.64,7.68
5.249352931976318,-5.43,0.48,1.34,5.61
5.254967927932739,-0.57,0.5,-2.73,2.83
5.264591932296753,1.74,0.5,-1.48,2.33
5.275726795196533,-2.91,-0.16,4.73,5.55
5.285135984420776,-2.23,3.29,4.08,5.69
5.300292015075684,1.45,-3.31,-1.24,3.82
5.304444789886475,0.83,6.32,-2.83,6.97
5.314579963684082,-2.61,0.13,-3.48,4.35
5.325545787811279,-2.37,1.05,-4.25,4.97
5.334344863891602,0.58,0.6,-3.57,3.66
5.3490309715271,1.38,-3.32,0.77,3.67
5.3541669845581055,-0.26,-2.45,3.74,4.47
5.364437103271484,-1.26,1.35,4.83,5.17
5.374680995941162,-0.04,2.85,0.7,2.93
5.3840179443359375,2.17,-4.64,-0.07,5.12
5.3986358642578125,2.68,-0.17,-3.36,4.3
5.403892993927002,1.2,0.71,1.15,1.8
5.414130926132202,1.04,-0.65,2.51,2.79
5.424952983856201,2.24,2.01,-0.65,3.07
5.434019088745117,1.87,1.01,-1.22,2.45
5.4491798877716064,0.42,1.51,-4.14,4.42
5.453872919082642,1.39,-2.44,2.8,3.96
5.4638237953186035,2.74,-1.4,-3.45,4.62
5.474891901016235,0.01,4.15,-2.09,4.64
5.483579874038696,-1.72,-4.1,0.18,4.44
5.497591972351074,-1.72,3.84,-3.47,5.45
5.5033159255981445,0.99,-3.97,8.05,9.03
5.513144016265869,1.39,-0.94,2.49,3.0
5.523561000823975,-1.77,5.23,-0.78,5.57
5.533177852630615,-2.94,3.13,-2.14,4.79
5.546864032745361,0.48,-0.52,-3.81,3.87
5.552824974060059,3.9,-3.9,-2.2,5.93
5.563813924789429,1.88,-1.14,1.14,2.47
5.573073863983154,-1.94,0.27,2.8,3.41
5.583131790161133,-3.26,6.05,-3.03,7.51
5.596683979034424,0.45,-3.66,-0.94,3.8
5.602625846862793,3.78,-0.38,-2.67,4.64
5.61287784576416,2.04,1.58,1.12,2.81
5.623121976852417,-2.74,-0.41,7.17,7.68
5.632683753967285,-1.48,5.77,0.69,5.99
5.646715879440308,-0.28,-2.06,-3.8,4.33
5.6522698402404785,0.97,-4.62,2.24,5.22
5.662690877914429,1.01,1.61,-6.09,6.37
5.672652959823608,-1.27,2.53,-0.33,2.85
5.682579040527344,-2.92,-1.18,0.94,3.28
5.696696758270264,0.77,4.16,2.16,4.75
5.702284812927246,2.43,1.85,-3.32,4.51
5.712578773498535,-0.32,-0.5,-4.29,4.33
5.722209930419922,-1.78,-2.72,-1.96,3.79
5.731966018676758,-0.06,1.95,-0.7,2.07
5.745599985122681,1.79,-0.9,-0.55,2.07
5.751817941665649,1.33,-0.54,1.09,1.8
5.7623679637908936,-0.04,1.24,1.45,1.9
5.772135972976685,-0.81,0.57,-0.24,1.01
5.782212972640991,-0.58,-0.42,0.62,0.94
5.795907974243164,0.54,0.78,2.06,2.26
5.801833868026733,0.95,0.83,2.05,2.4
5.811919927597046,0.05,-2.19,0.5,2.24
5.822048902511597,-1.21,1.23,-5.17,5.45
5.831589937210083,0.45,-1.64,-1.33,2.15
5.845707893371582,1.66,1.0,-4.88,5.25
5.851203918457031,1.39,-2.31,6.77,7.28
5.861691951751709,-0.65,1.17,-0.64,1.48
5.871265888214111,-1.46,1.26,-2.11,2.85
5.881596088409424,-0.1,-6.13,2.43,6.59
5.895620822906494,1.45,0.53,2.77,3.17
5.9010090827941895,-0.03,3.0,-5.28,6.07
5.911604881286621,-1.71,-5.16,6.94,8.81
5.921061038970947,1.35,0.03,0.92,1.63
5.9315948486328125,2.17,-0.46,-2.33,3.21
5.945873975753784,-1.08,0.64,-3.93,4.12
5.9506731033325195,-0.51,3.8,-1.28,4.04
5.961392879486084,2.32,-3.02,-2.05,4.32
5.970793962478638,2.31,0.22,-0.94,2.5
5.981022834777832,0.28,-0.43,-0.34,0.61
5.994553089141846,1.73,2.11,0.95,2.88
6.000486850738525,3.76,1.28,1.77,4.34
6.010797023773193,1.55,0.62,-1.85,2.49
6.020849943161011,-0.88,1.12,0.79,1.62
6.030740976333618,0.77,-2.82,-6.12,6.78
6.044888019561768,3.15,0.22,-1.07,3.33
6.050226926803589,2.66,-2.23,-0.97,3.6
6.060657978057861,0.85,2.82,3.58,4.63
6.070460796356201,-0.6,-0.54,0.37,0.88
6.0805840492248535,0.72,-2.34,5.35,5.88
6.094310760498047,1.55,1.68,-1.91,2.97
6.099953889846802,0.36,2.67,0.07,2.69
6.1103668212890625,0.37,-0.88,-2.09,2.29
6.120298862457275,0.8,-1.06,-1.41,1.93
6.130794048309326,-0.99,-1.71,-2.5,3.18
6.146134853363037,-1.75,2.02,1.62,3.12
6.150044918060303,0.17,0.52,-3.86,3.89
6.160268783569336,1.55,-2.99,0.09,3.36
6.169823884963989,0.49,-0.89,-0.84,1.31
6.180363893508911,-1.41,1.14,1.13,2.13
6.1949379444122314,-0.85,0.76,1.23,1.67
6.1997528076171875,1.11,-1.26,3.37,3.76
6.209943771362305,2.08,-5.32,2.32,6.16
6.21940279006958,0.55,2.64,3.5,4.41
6.22994589805603,-1.62,7.74,-3.46,8.63
6.244143009185791,-1.05,-2.97,-4.1,5.17
6.249027967453003,3.34,-3.19,-2.17,5.1
6.2600789070129395,2.44,5.26,-6.38,8.62
6.269259929656982,-1.95,-2.39,1.3,3.34
6.279906749725342,0.26,-3.26,7.98,8.62
6.2936787605285645,1.81,3.75,2.68,4.95
6.298974990844727,0.5,-1.8,2.41,3.04
6.309250831604004,-0.93,3.14,-2.56,4.15
6.319117069244385,0.89,-0.78,-0.81,1.43
6.329451084136963,1.33,0.89,-5.77,5.98
6.343532085418701,0.17,4.74,-5.89,7.56
6.348608016967773,1.88,-1.98,-0.09,2.73
6.35894775390625,3.05,-2.1,0.57,3.74
6.368973970413208,1.28,0.04,4.48,4.65
6.379245758056641,-0.19,-0.9,2.87,3.01
6.393517971038818,0.88,1.31,1.35,2.07
6.398396968841553,2.04,-1.19,-0.27,2.37
6.412434101104736,0.31,0.86,-8.96,9.0
6.418306827545166,-1.52,0.2,2.43,2.87
6.428802013397217,-0.17,-3.13,-2.01,3.72
6.4424779415130615,1.2,3.08,4.54,5.61
6.44796895980835,-0.47,-4.43,6.09,7.54
6.4622509479522705,-1.98,3.64,-4.71,6.27
6.4679460525512695,-1.62,0.86,4.07,4.46
6.478405952453613,0.99,-4.57,-1.8,5.01
6.492445945739746,1.8,1.94,1.92,3.26
6.4980998039245605,-1.71,-0.81,1.39,2.34
6.513078927993774,-4.77,6.26,1.51,8.01
6.518068790435791,-2.5,1.52,-2.21,3.66
6.528414964675903,0.33,1.74,-5.16,5.45
6.542130947113037,-0.36,1.51,-3.16,3.52
6.547544956207275,-2.11,-0.69,3.51,4.15
6.562691926956177,-0.38,1.72,3.74,4.13
6.5674638748168945,-0.14,4.62,-0.48,4.64
6.578141927719116,-4.06,2.67,-2.59,5.5
6.591872930526733,-2.39,-6.71,4.46,8.4
6.597426891326904,1.66,-0.59,-4.38,4.72
6.608421802520752,0.57,0.61,0.31,0.89
6.61721396446228,-3.96,3.31,-1.95,5.51
6.628086090087891,-3.02,3.16,2.13,4.86
6.6423749923706055,0.98,-1.93,-0.81,2.31
6.647242069244385,1.58,1.76,-4.07,4.7
6.658393859863281,-3.36,-2.16,-6.43,7.56
6.667237758636475,-4.0,3.48,0.8,5.36
6.677706956863403,1.99,-0.15,1.39,2.43
6.691313982009888,6.19,-7.34,5.2,10.91
6.696830749511719,-0.69,1.59,-4.52,4.84
6.707139015197754,-8.29,12.05,1.0,14.66
6.717000961303711,-3.61,-5.56,-1.53,6.8
6.727360963821411,6.45,-2.24,-0.56,6.85
6.741747856140137,2.74,1.94,-1.5,3.67
6.746379852294922,-6.87,1.13,8.63,11.08
6.75692081451416,-4.75,2.76,-1.04,5.59
6.766646862030029,3.62,-1.95,-3.81,5.6
6.776932954788208,2.39,-1.89,-8.89,9.39
6.791230916976929,-3.65,1.48,-2.24,4.53
6.79625391960144,-3.95,0.98,0.1,4.07
6.8062849044799805,2.07,-5.51,7.61,9.62
6.816198825836182,2.39,-1.68,6.71,7.31
6.82665491104126,-4.12,5.02,0.02,6.49
6.841084003448486,-6.23,1.62,-4.35,7.76
6.845855951309204,0.43,-4.92,-5.26,7.21
6.856090068817139,4.05,0.09,-4.4,5.98
6.866154909133911,-1.07,-1.62,1.53,2.47
6.876535892486572,-5.36,2.97,2.81,6.74
6.8906331062316895,-1.98,0.72,-2.76,3.47
6.895727872848511,1.6,-4.04,1.97,4.77
6.906106948852539,1.56,-1.67,0.98,2.48
6.915975093841553,-0.29,-0.4,4.31,4.33
6.925964832305908,-0.72,1.32,4.9,5.12
6.940233945846558,-0.62,1.32,-1.24,1.91
6.945337772369385,0.12,-2.62,1.33,2.94
6.955542087554932,1.08,0.27,-6.39,6.48
6.965600967407227,1.47,-0.76,-1.81,2.45
6.976279973983765,1.23,2.23,-4.47,5.14
6.990566968917847,1.66,-0.33,0.68,1.82
6.995543003082275,2.01,-3.83,1.31,4.51
7.005077838897705,1.53,3.28,2.61,4.46
7.015463829040527,0.47,1.34,-3.19,3.49
7.026197910308838,0.27,1.0,-1.26,1.63
7.040644884109497,0.63,-1.77,-3.28,3.77
7.04483699798584,0.64,-2.52,2.32,3.48
7.054955959320068,0.44,-1.27,0.49,1.43
7.064836025238037,0.91,1.68,1.79,2.61
7.075905799865723,1.58,-4.78,3.17,5.94
7.090182781219482,1.26,0.45,-6.01,6.15
7.094624996185303,1.39,-2.26,-1.64,3.11
7.105736970901489,1.02,-2.46,-0.65,2.74
7.114709854125977,0.53,3.83,-4.71,6.09
7.125457763671875,0.03,-3.07,1.44,3.39
7.1399009227752686,1.56,0.23,5.23,5.46
7.144381046295166,2.48,-3.19,5.07,6.48
7.154573917388916,-0.96,-0.64,-5.45,5.57
7.164355754852295,-3.64,7.62,-1.5,8.57
7.175159931182861,-0.95,-3.14,-0.74,3.36
7.19025182723999,2.73,-6.33,-2.5,7.33
7.194549083709717,0.04,9.98,-4.11,10.79
7.204133033752441,-2.43,0.35,4.21,4.87
7.214468955993652,0.64,-4.09,3.0,5.11
7.224455833435059,3.84,1.22,3.77,5.51
7.238956928253174,0.09,6.07,-3.74,7.13
7.243943929672241,-2.29,2.0,0.97,3.19
7.253814935684204,1.36,-5.78,-1.25,6.06
7.263772010803223,3.96,2.58,-3.89,6.12
7.274255752563477,-1.21,1.94,0.96,2.47
7.288940906524658,-2.79,-2.99,3.5,5.38
7.2938079833984375,1.63,5.32,0.55,5.59
7.3040947914123535,2.33,-0.85,-6.09,6.57
7.313562870025635,0.65,-1.64,-1.6,2.38
7.32425594329834,0.78,1.03,-4.34,4.52
7.339140892028809,0.79,-1.05,1.74,2.18
7.343308925628662,-0.42,-1.44,2.71,3.09
7.353633880615234,0.44,0.78,5.26,5.33
7.363200902938843,1.29,-3.49,0.78,3.8
7.373558044433594,0.71,1.09,-2.81,3.09
7.3879029750823975,-0.67,3.25,-1.31,3.56
7.393282890319824,0.42,-2.34,0.92,2.54
7.402965068817139,3.3,-9.19,0.6,9.78
7.413379907608032,1.65,0.51,-0.5,1.79
7.423274993896484,-3.29,6.04,2.84,7.44
7.438230037689209,-1.36,-6.03,6.36,8.86
7.442969799041748,4.27,2.83,-1.4,5.31
7.4530189037323,2.7,3.0,-2.03,4.51
7.462738990783691,-2.6,1.19,-4.73,5.52
7.473013877868652,-1.94,1.37,-3.35,4.1
7.487668037414551,2.97,1.1,-3.04,4.39
7.492687940597534,2.93,-2.57,0.95,4.01
7.502633094787598,-0.77,-0.55,3.24,3.37
7.513048887252808,-2.07,4.96,0.64,5.41
7.5225889682769775,-0.7,4.68,-2.74,5.46
7.537299871444702,-0.43,-1.51,0.8,1.76
7.542746067047119,-0.51,0.92,-3.53,3.68
7.552532911300659,0.24,-0.75,1.05,1.31
7.563124895095825,0.15,0.95,-1.36,1.66
7.572417974472046,-1.65,-0.97,2.04,2.79
7.587296009063721,-1.77,2.88,-0.24,3.38
7.5927019119262695,1.05,-1.17,1.2,1.97
7.602055072784424,2.12,1.31,-0.64,2.57
7.612608909606934,1.0,0.7,-0.89,1.51
7.62212610244751,0.31,1.2,-2.15,2.48
7.636591911315918,0.88,2.57,-0.29,2.73
7.642606973648071,2.26,-3.15,4.39,5.85
7.652507781982422,1.27,3.11,-2.37,4.11
7.66224479675293,-1.58,4.24,-3.71,5.85
7.672034978866577,-0.05,-2.85,-1.67,3.3
7.686156749725342,3.37,-0.1,-4.82,5.88
7.692660808563232,2.37,-1.79,4.64,5.5
7.701501846313477,-1.82,-2.0,4.53,5.27
7.712159872055054,-0.06,-3.63,3.78,5.24
7.721296787261963,2.08,1.01,-7.04,7.41
7.736587047576904,1.3,-2.64,1.83,3.46
7.742239952087402,0.97,-4.87,-0.43,4.98
7.751344919204712,1.54,0.78,5.91,6.15
7.761744976043701,0.45,4.34,-6.11,7.5
7.77125096321106,1.15,2.55,-0.88,2.93
7.785904884338379,3.77,-6.49,-1.59,7.67
7.7915709018707275,4.94,-3.66,0.54,6.17
7.801156044006348,1.94,1.75,0.43,2.64
7.8116278648376465,-0.06,0.09,4.94,4.94
7.821422100067139,1.96,-0.95,1.08,2.43
7.836282968521118,4.28,-1.02,-3.02,5.33
7.840904951095581,2.43,-4.98,-2.53,6.09
7.850738048553467,-0.08,4.33,1.28,4.51
7.861283779144287,0.52,-0.76,1.61,1.85
7.870535850524902,1.97,-0.56,-0.21,2.05
7.884845972061157,1.85,-1.06,-0.74,2.25
7.890748023986816,0.55,-2.03,-2.17,3.02
7.9007508754730225,0.51,3.13,1.85,3.67
7.911306858062744,0.49,2.79,0.19,2.83
7.920200824737549,0.53,0.5,0.91,1.16
7.935061931610107,0.46,2.31,-3.8,4.47
7.940304756164551,0.18,1.33,0.5,1.43
7.950204849243164,-0.02,1.58,-1.98,2.53
7.960648059844971,-0.24,2.73,-0.45,2.77
7.970289945602417,-0.31,-0.39,0.8,0.94
7.984675884246826,0.17,0.4,5.27,5.28
7.990174770355225,-0.34,0.14,-3.09,3.11
7.999982833862305,-2.51,3.78,-1.1,4.66
8.010196924209595,-2.92,3.32,-2.58,5.11
8.02017879486084,-0.5,-1.14,1.02,1.6
8.034517765045166,2.13,-3.81,4.52,6.28
8.040134906768799,0.41,7.49,-7.56,10.64
8.04965877532959,-3.81,0.56,3.09,4.93
8.060503959655762,-1.35,-4.43,1.48,4.86
8.069655895233154,2.08,2.5,3.3,4.63
8.084057807922363,-0.5,-0.7,3.47,3.57
8.090709924697876,-2.26,-2.96,-0.12,3.72
8.099397897720337,0.79,-0.71,-1.2,1.6
8.110061883926392,1.04,1.31,-0.8,1.85
8.119266033172607,-1.53,0.22,-1.16,1.93
8.133985996246338,-2.16,3.15,-3.9,5.45
8.139219760894775,-0.12,2.71,-1.62,3.15
8.149606943130493,0.46,-1.19,-3.13,3.38
8.159783840179443,-1.15,-0.33,0.27,1.22
8.169321060180664,-2.09,-1.21,3.73,4.44
8.184891939163208,-1.76,1.78,3.49,4.29
8.189077854156494,-1.53,0.01,0.45,1.59
8.19884204864502,-2.39,0.79,-4.24,4.93
8.2100510597229,-1.42,-0.89,1.15,2.03
8.219064950942993,-0.76,-0.71,-4.93,5.03
8.234145879745483,-1.76,1.6,4.55,5.13
8.239067077636719,-3.26,0.14,-1.88,3.76
8.248687982559204,-2.0,-0.83,6.1,6.47
8.260028839111328,-1.18,-0.11,-6.35,6.45
8.268764972686768,-1.9,3.73,1.51,4.45
8.283906936645508,-1.08,-2.08,-0.86,2.49
8.288606882095337,0.18,2.28,-0.87,2.44
8.29876708984375,-1.13,-3.35,-0.87,3.64
8.308880805969238,-1.02,-3.18,4.18,5.35
8.318233013153076,1.02,-1.81,0.71,2.19
8.333417892456055,1.67,-0.81,0.62,1.95
8.338123798370361,-1.7,3.51,-5.5,6.74
8.348703861236572,-3.05,-1.88,4.26,5.56
8.359086036682129,-0.97,-0.37,-8.48,8.54
8.36848497390747,-0.67,1.83,2.95,3.53
8.383827924728394,-2.53,-0.36,0.8,2.67
8.388047933578491,-3.14,4.77,4.87,7.5
8.397846937179565,-1.81,-5.09,-3.12,6.23
8.407942771911621,-1.07,0.72,-6.87,6.99
8.418004035949707,-0.75,0.11,-1.48,1.66
8.433566093444824,0.06,-0.8,2.24,2.37
8.437496900558472,0.02,-0.17,4.48,4.48
8.447752952575684,-2.36,2.01,0.6,3.15
8.45810079574585,-2.74,1.99,-3.74,5.04
8.46776795387268,0.69,0.53,-7.13,7.18
8.483784914016724,4.37,-5.89,-1.42,7.47
8.487290859222412,2.64,-0.89,2.88,4.0
8.497704982757568,-1.91,1.36,5.98,6.42
8.507719993591309,-1.71,-2.5,9.13,9.61
8.517404079437256,0.44,4.61,-7.19,8.55
8.5329008102417,1.66,0.83,-1.98,2.71
8.536947965621948,2.79,-3.27,-6.12,7.47
8.54730486869812,2.23,-0.05,-0.89,2.4
8.557224750518799,-1.71,-0.75,1.98,2.72
8.5674729347229,-3.69,1.41,4.78,6.2
8.583071947097778,1.36,-0.01,-0.69,1.52
8.587216854095459,3.86,0.05,-5.27,6.53
8.596958875656128,0.58,-2.3,-5.74,6.21
8.606895923614502,-2.2,-1.02,4.53,5.13
8.617156982421875,0.32,-0.59,2.51,2.59
8.633200883865356,1.95,-4.2,7.1,8.47
8.636497974395752,-0.99,0.79,-6.55,6.67
8.646859884262085,-0.54,-0.46,3.18,3.25
8.657098770141602,2.71,-7.34,-4.11,8.83
8.666778087615967,2.47,6.13,-1.87,6.86
8.683425903320312,-1.9,1.77,-3.34,4.23
8.686287879943848,-2.24,-1.11,6.39,6.86
8.69704294204712,1.85,-2.95,1.09,3.64
8.706562042236328,1.77,-1.01,-0.76,2.17
8.716299057006836,-0.29,-2.25,3.01,3.76
8.732028007507324,-0.78,3.24,1.26,3.56
8.735941886901855,0.53,-2.3,0.06,2.36
8.746500968933105,-0.75,1.12,-1.94,2.36
8.756265878677368,-2.57,2.34,-1.05,3.63
8.766642093658447,-1.42,0.42,-7.4,7.54
8.782258987426758,1.24,-3.08,-0.69,3.39
8.785975933074951,2.36,-2.88,1.28,3.93
8.796026945114136,0.25,1.65,0.26,1.68
8.806366920471191,-0.77,-0.47,1.14,1.45
8.816003799438477,0.32,1.52,2.86,3.25
8.832286834716797,3.18,-1.08,0.48,3.39
8.835462093353271,0.74,6.41,-1.65,6.66
8.845797061920166,-2.01,-0.71,-2.73,3.46
8.855616092681885,-0.98,-2.51,2.75,3.85
8.86599588394165,1.38,-0.26,2.79,3.12
8.88187289237976,0.56,-1.66,2.58,3.11
8.885069847106934,-1.66,5.47,-6.73,8.83
8.895986080169678,-0.87,1.96,1.48,2.6
8.905147075653076,1.56,-7.6,-4.28,8.86
8.915864944458008,0.95,1.86,-2.06,2.93
8.931391954421997,-1.65,2.6,-1.9,3.61
8.93495488166809,0.96,-2.84,4.88,5.72
8.945328950881958,3.01,-6.4,6.12,9.35
8.954969882965088,-2.22,2.04,2.4,3.85
8.965229034423828,-4.93,3.3,-0.17,5.93
8.98059606552124,1.91,0.86,-4.58,5.03
8.984704971313477,6.68,-4.09,-8.63,11.65
8.995008945465088,1.32,-1.76,-5.25,5.69
9.005136013031006,-4.25,2.27,3.14,5.75
9.014818906784058,-1.71,-2.27,5.83,6.48
9.030602931976318,3.22,1.98,7.84,8.7
9.034350872039795,1.02,0.76,-3.47,3.69
9.044809818267822,-1.67,-0.73,-1.54,2.38
9.054179906845093,-0.22,3.2,-8.25,8.85
9.065031051635742,2.14,-0.29,2.04,2.97
9.082181930541992,-0.44,1.16,0.64,1.39
9.084424018859863,-3.72,0.68,4.86,6.15
9.094669818878174,-2.1,-0.78,-0.42,2.27
9.104161977767944,1.62,1.99,0.69,2.65
9.114617824554443,0.48,0.34,-4.94,4.97
9.12946081161499,-0.68,-0.92,-0.23,1.16
9.134108066558838,-1.45,0.95,-3.56,3.95
9.144144058227539,0.09,-0.46,4.48,4.5
9.154204845428467,-0.2,0.65,1.94,2.05
9.164435863494873,-0.85,-5.29,-0.02,5.35
9.180098056793213,-1.53,2.42,-3.16,4.26
9.183587074279785,0.13,-2.11,3.62,4.19
9.193925857543945,1.93,-3.58,0.02,4.06
9.203546047210693,-0.5,2.11,-1.76,2.79
9.214001893997192,-1.93,-1.5,2.01,3.16
9.22983193397522,2.84,-2.75,3.32,5.16
9.233283042907715,4.1,1.65,-3.35,5.54
9.246891975402832,-0.82,0.58,1.98,2.22
9.25308084487915,-4.74,1.08,-2.99,5.7
9.264080047607422,-0.93,0.47,1.76,2.04
9.280838012695312,2.27,0.94,-8.7,9.04
9.283082962036133,1.24,2.29,3.62,4.45
9.293855905532837,-1.17,-2.6,1.37,3.16
9.303051948547363,0.06,1.27,2.06,2.42
9.313515901565552,0.54,3.45,-5.23,6.28
9.32882308959961,0.5,0.16,4.07,4.1
9.33272409439087,-1.15,2.31,-5.88,6.42
9.347301006317139,-0.7,-1.28,4.53,4.75
9.352892875671387,0.63,-0.51,-2.65,2.77
9.363220930099487,0.08,5.13,-0.79,5.19
9.37888479232788,0.28,-2.34,1.62,2.85
9.382631778717041,3.04,1.44,-2.8,4.37
9.397501945495605,3.22,1.71,-2.09,4.2
9.402329921722412,0.55,-0.65,-0.01,0.85
9.412946939468384,-0.2,1.51,-3.11,3.46
9.428499937057495,1.96,-3.0,-2.46,4.34
9.432257890701294,3.53,-6.32,4.02,8.28
9.443089008331299,1.11,2.89,1.18,3.31
9.452056884765625,-0.98,-1.29,3.67,4.01
9.463079929351807,0.3,-0.6,-2.51,2.59
9.47938585281372,3.23,0.93,0.19,3.36
9.482261896133423,0.82,-0.88,-8.01,8.09
9.497485876083374,-0.57,-2.63,4.17,4.96
9.50222396850586,1.33,-5.13,2.74,5.96
9.512104034423828,0.39,0.66,7.77,7.8
9.527979850769043,-2.86,0.74,-1.66,3.38
9.531604766845703,-1.64,-0.79,0.13,1.82
9.541940927505493,2.88,-0.05,-4.82,5.61
9.551830768585205,4.79,1.2,-3.97,6.33
9.5622398853302,1.17,-2.14,-2.45,3.45
9.577874898910522,-2.13,3.96,3.0,5.4
9.581501960754395,-0.64,-0.45,2.06,2.2
9.591829776763916,1.22,1.22,4.34,4.67
9.60136079788208,2.23,-4.7,2.48,5.76
9.612239837646484,0.56,2.32,-4.99,5.53
9.628096103668213,0.49,1.1,1.18,1.68
9.63112497329712,2.07,-1.04,-1.3,2.65
9.641440868377686,1.64,1.84,-2.79,3.72
9.651281833648682,-1.23,3.53,-3.45,5.08
9.661724090576172,-0.14,-1.51,5.22,5.43
9.677347898483276,2.54,-1.46,2.21,3.66
9.681224822998047,0.83,4.81,-4.36,6.54
9.691210985183716,-1.14,-2.75,0.77,3.07
9.701413869857788,0.57,0.05,9.51,9.52
9.711389064788818,1.8,1.97,3.81,4.65
9.72711992263794,-0.94,3.89,-1.99,4.46
9.730679035186768,-0.49,5.79,-13.45,14.65
9.740912914276123,1.42,-3.22,-12.57,13.05
9.751036882400513,1.79,-6.22,-4.83,8.07
9.76137089729309,-1.27,1.38,6.31,6.58
9.77741289138794,-0.77,-5.41,14.21,15.22
9.780529975891113,-0.04,7.82,6.07,9.89
9.790606021881104,-2.55,1.97,-8.15,8.76
9.800479888916016,-4.54,-1.5,-12.73,13.59
9.811258792877197,-1.94,-4.46,3.25,5.84
9.827225923538208,2.15,-2.61,7.65,8.36
9.830394983291626,-0.31,4.34,7.48,8.65
9.8406400680542,-1.67,-2.98,6.42,7.27
9.850244998931885,0.54,1.44,-5.97,6.16
9.86093282699585,-1.18,5.19,-9.06,10.5
9.877104759216309,-4.25,7.29,-2.46,8.78
9.879936933517456,-1.26,-0.13,0.83,1.51
9.890024900436401,2.33,0.06,0.2,2.33
9.900245904922485,-0.14,-5.34,2.48,5.88
9.911022901535034,-4.64,2.16,0.75,5.17
9.92676591873169,-6.05,4.19,-0.68,7.39
9.929629802703857,-2.2,-3.74,0.14,4.34
9.940531969070435,1.68,-0.01,4.61,4.9
9.949851989746094,0.93,-0.13,-7.09,7.15
9.960833072662354,-1.94,-3.1,-2.87,4.64
9.976635932922363,-0.87,2.82,2.87,4.11
9.979416847229004,-0.75,1.1,4.26,4.46
9.989542007446289,-2.11,2.06,0.34,2.96
9.999374866485596,-1.3,4.2,-0.16,4.39
10.01029109954834,0.22,-4.75,-7.44,8.82
10.026278018951416,0.5,-6.58,4.09,7.76
10.029646873474121,-0.16,-4.62,-0.85,4.7
10.039083003997803,-2.38,3.56,-3.29,5.4
10.049771785736084,-2.53,1.45,-1.31,3.19
10.060019969940186,-0.13,0.64,-4.6,4.64
10.076735019683838,2.3,-6.0,4.61,7.9
10.079031944274902,0.11,-1.65,3.07,3.48
10.08869981765747,-3.38,4.41,1.97,5.89
10.099292755126953,-4.72,6.52,-2.38,8.39
10.109492778778076,-1.55,-2.21,-4.02,4.84
10.125655889511108,2.71,-9.99,5.22,11.59
10.12865686416626,0.25,0.7,1.57,1.73
10.139103889465332,-4.75,4.11,2.55,6.77
10.14893388748169,-2.7,3.03,-3.76,5.53
10.159443855285645,2.11,-0.31,-1.21,2.45
10.17594575881958,1.04,-1.77,-0.16,2.05
10.178814888000488,-3.06,3.33,-1.71,4.83
10.18839406967163,-2.59,-0.06,-0.88,2.73
10.198554992675781,1.17,-3.75,1.51,4.2
10.208751916885376,1.56,0.47,8.57,8.72
10.225059986114502,-0.94,-5.7,-1.25,5.91
10.228326797485352,-3.18,3.07,-1.86,4.79
10.23824405670166,-1.35,4.57,-7.46,8.85
10.248518943786621,1.41,-5.53,2.41,6.19
10.258502960205078,2.91,-0.06,-2.42,3.78
10.275039911270142,0.74,3.07,1.78,3.62
10.278060913085938,-1.24,0.34,0.16,1.29
10.288486957550049,-1.33,3.36,-4.21,5.54
10.298393964767456,1.97,-4.79,-3.14,6.05
10.30834698677063,2.46,2.7,-2.54,4.44
10.324751853942871,-2.17,1.53,9.29,9.66
10.327740907669067,-4.7,1.39,1.09,5.02
10.337707042694092,3.31,-1.59,-4.07,5.48
10.347606897354126,9.33,-8.88,-3.59,13.37
10.35805892944336,3.47,-0.94,-0.63,3.64
10.374464988708496,-7.08,4.73,0.03,8.51
10.377773761749268,-5.18,2.1,0.06,5.58
10.387293815612793,4.28,-4.05,2.46,6.38
10.397588968276978,6.1,-0.69,-0.49,6.15
10.407526016235352,-2.93,1.24,-0.25,3.19
10.423873901367188,-4.42,-0.61,1.06,4.58
10.427238941192627,2.6,0.05,-0.83,2.72
10.437206983566284,5.05,-9.43,1.21,10.76
10.446985960006714,-1.52,3.6,3.09,4.98
10.45734691619873,-5.34,3.22,3.9,7.35
10.473849773406982,0.35,-4.23,-3.13,5.27
10.477040767669678,3.86,5.03,-7.59,9.88
10.487136840820312,0.47,0.25,-6.82,6.84
10.496708869934082,-0.98,-1.74,3.08,3.67
10.50721788406372,2.26,-3.07,4.26,5.71
10.523705005645752,2.62,-0.09,5.19,5.81
10.527095794677734,-1.0,-2.31,-0.8,2.64
10.5364089012146,-0.8,-0.37,-1.78,1.98
10.54659390449524,2.95,-1.17,-3.44,4.68
10.55674695968628,3.17,-2.45,-1.56,4.29
10.573238849639893,0.36,0.71,5.59,5.64
10.576536893844604,-0.62,4.24,-0.95,4.38
10.586318016052246,1.26,-3.58,0.17,3.79
10.596081972122192,2.19,-0.3,0.05,2.21
10.606104850769043,1.56,2.21,-2.8,3.89
10.621922969818115,0.2,-0.11,-1.3,1.31
10.626337051391602,-0.15,1.33,-1.79,2.23
10.636399984359741,0.81,0.37,2.44,2.59
10.646370887756348,0.99,-0.61,-3.92,4.08
10.656132936477661,-0.33,2.17,-1.18,2.49
10.67225694656372,-0.34,-3.79,2.19,4.39
10.675755023956299,0.01,2.37,-3.15,3.94
10.68553876876831,-0.13,-1.19,5.33,5.46
10.69634485244751,0.8,0.31,-2.86,2.98
10.70607590675354,1.51,-1.95,1.8,3.05
10.721904754638672,-0.53,5.52,-3.96,6.81
10.725409030914307,-1.71,-1.18,3.43,4.01
10.735493898391724,-0.42,-1.55,-3.65,3.98
10.746080875396729,1.27,0.73,-1.65,2.2
10.755476951599121,1.39,-0.24,-3.28,3.57
10.771772861480713,1.91,-1.58,5.81,6.31
10.775362014770508,1.24,-0.13,6.39,6.51
10.785475969314575,0.5,4.02,-1.87,4.46
10.79557180404663,1.43,1.6,-2.28,3.13
10.805253982543945,0.77,-2.27,-1.63,2.89
10.821592807769775,-2.45,2.95,0.33,3.84
10.824750900268555,-1.88,0.2,4.67,5.03
10.835330963134766,1.48,-2.92,-3.48,4.77
10.845285892486572,1.95,2.55,-0.76,3.29
10.85499095916748,-1.37,-1.7,5.64,6.04
10.87122392654419,-2.27,1.03,-4.13,4.82
10.875112056732178,-0.14,6.75,0.81,6.79
10.88442087173462,0.59,-3.66,-6.29,7.3
10.895372867584229,-1.27,-1.04,3.47,3.83
10.904314994812012,-0.75,-4.65,6.44,7.97
10.920836925506592,2.31,0.92,4.22,4.89
10.924505949020386,1.19,4.32,-0.14,4.48
10.934330940246582,-3.26,3.01,-9.42,10.41
10.944614887237549,-3.09,-2.74,-2.78,4.97
10.954497814178467,-0.32,-3.82,-7.98,8.85
10.970725059509277,1.88,0.44,4.96,5.32
10.97423505783081,2.69,-2.03,9.36,9.94
10.984312057495117,2.76,-0.29,6.1,6.7
10.99472188949585,-1.51,4.95,-4.13,6.62
11.00458288192749,-4.99,2.64,-7.6,9.46
11.02113389968872,-2.8,2.03,-3.82,5.15
11.023876905441284,3.93,-9.18,6.31,11.81
11.03410005569458,4.59,-5.07,2.35,7.23
11.044667959213257,-2.74,2.14,-0.96,3.6
11.053760051727295,-5.71,2.22,0.11,6.12
11.070231914520264,0.13,-3.42,1.68,3.81
11.073968887329102,4.17,4.81,0.28,6.37
11.083569049835205,-1.59,7.76,-5.11,9.42
11.09482192993164,-5.88,5.25,-2.96,8.42
11.10336685180664,-3.1,-3.3,-3.24,5.56
11.119746923446655,2.02,-0.93,-1.06,2.46
11.123310089111328,0.96,1.18,1.85,2.39
11.133463859558105,-2.33,-0.64,2.06,3.17
11.14432692527771,-2.62,0.97,1.57,3.2
11.153388977050781,0.47,-0.96,-2.0,2.26
11.17025089263916,1.63,6.22,-2.81,7.01
11.173140048980713,0.62,1.12,1.58,2.03
11.183393955230713,-1.24,-0.49,-3.48,3.72
11.193819046020508,-0.88,-1.85,4.01,4.5
11.203454971313477,1.36,-1.95,-2.15,3.2
11.220881938934326,2.8,-1.39,-0.1,3.12
11.223014831542969,0.08,1.72,-0.83,1.91
11.23292088508606,-2.46,1.38,1.13,3.03
11.243023872375488,-0.96,-3.57,-2.67,4.56
11.252842903137207,2.77,-3.03,1.17,4.26
11.269507884979248,2.04,0.97,-0.4,2.29
11.272603988647461,-0.63,2.52,-0.88,2.74
11.282642841339111,-2.12,-4.56,2.28,5.52
11.292864799499512,0.81,-2.8,3.97,4.92
11.302326917648315,0.77,-1.0,-6.66,6.77
11.319328784942627,-0.22,-1.85,3.19,3.69
11.322234869003296,-0.38,3.11,-0.94,3.27
11.332958936691284,1.0,-3.47,3.13,4.77
11.342808961868286,-1.5,0.75,-5.65,5.89
11.352329969406128,-3.04,3.1,0.18,4.34
11.369317054748535,0.03,-5.82,5.72,8.16
11.372017860412598,2.56,7.47,-8.12,11.32
11.382114887237549,0.66,-0.39,5.54,5.59
11.392018795013428,-1.1,0.85,0.28,1.41
11.402111053466797,-0.14,5.69,-7.82,9.67
11.419679880142212,1.82,-4.22,1.15,4.73
11.42195987701416,2.52,3.68,-0.41,4.47
11.431847095489502,2.13,-1.8,3.62,4.56
11.44251298904419,0.82,2.73,1.16,3.07
11.452043056488037,2.21,3.18,-3.08,4.94
11.46962308883667,2.61,-2.36,-7.36,8.15
11.471638917922974,0.44,3.48,-7.34,8.13
11.481980800628662,0.17,0.15,0.86,0.88
11.49172592163086,3.03,-5.21,5.05,7.86
11.501357078552246,3.88,-2.32,5.25,6.92
11.518314838409424,0.21,2.9,2.26,3.68
11.521135807037354,-0.91,-2.54,2.33,3.56
11.531877040863037,1.27,-1.25,-8.2,8.39
11.541508913040161,1.87,-3.2,-4.33,5.69
11.551655769348145,1.02,-3.56,2.8,4.64
11.568813800811768,0.8,-2.63,3.98,4.83
11.571274757385254,-0.11,5.13,0.91,5.21
11.581122875213623,0.46,-2.0,0.27,2.06
11.591095924377441,1.88,-5.62,-3.2,6.73
11.601109981536865,0.84,1.42,-6.24,6.45
11.61841106414795,-2.22,-0.12,-1.31,2.58
11.62062692642212,-1.7,0.61,4.78,5.1
11.631197929382324,2.35,-5.01,7.82,9.57
11.641196966171265,1.63,-0.98,1.52,2.43
11.651036977767944,-2.5,2.05,-3.21,4.55
11.668785095214844,-1.94,1.21,0.92,2.46
11.670990943908691,0.88,1.05,-6.06,6.21
11.681258916854858,-0.58,7.17,0.25,7.19
11.690517902374268,-1.91,-6.92,2.43,7.57
11.700429916381836,-1.41,-0.14,0.46,1.48
11.717933893203735,-0.42,4.48,1.35,4.69
11.720112800598145,-0.61,-0.99,0.97,1.51
11.73065710067749,0.12,2.3,-0.01,2.3
11.74018383026123,-0.44,-3.62,-6.61,7.54
11.750524044036865,0.78,0.77,1.4,1.77
11.767673015594482,1.83,0.62,-3.05,3.61
11.770195960998535,1.33,-0.44,5.46,5.63
11.78028392791748,0.34,2.75,-3.35,4.34
11.790255069732666,2.35,-2.54,1.58,3.8
11.800024032592773,2.42,-1.01,-0.5,2.66
11.816874027252197,0.72,0.82,1.19,1.61
11.819543838500977,-0.15,2.15,0.54,2.22
11.830028057098389,1.63,-3.05,0.23,3.46
11.839488983154297,2.61,-3.41,2.73,5.08
11.849955081939697,0.51,-1.03,-1.03,1.54
11.86736798286438,-2.21,5.65,1.46,6.24
11.869611978530884,-0.62,0.09,1.8,1.9
11.879923820495605,2.52,-1.63,-2.78,4.09
11.889341831207275,0.77,1.4,-7.98,8.13
11.900120973587036,-0.61,2.11,-3.09,3.79
11.91755485534668,1.19,1.56,2.65,3.29
11.9197359085083,1.86,-2.48,0.7,3.17
11.929709911346436,-2.19,-0.84,2.35,3.32
11.939116954803467,-1.9,3.41,-4.0,5.58
11.949487924575806,3.02,-2.83,5.45,6.84
11.966331958770752,6.2,-1.86,-0.55,6.49
11.968815803527832,0.95,2.67,-1.81,3.36
11.979260921478271,-2.96,2.21,-4.49,5.81
11.989304065704346,1.39,0.51,3.75,4.03
11.999093055725098,5.28,-2.86,2.75,6.6
12.015854835510254,-0.25,4.83,-4.8,6.81
12.018483877182007,-4.3,2.9,-0.51,5.21
12.029339790344238,2.95,-4.16,-0.43,5.11
12.038509845733643,7.55,-1.93,0.72,7.82
12.049182891845703,0.37,4.7,-1.84,5.06
12.06627082824707,-4.39,0.91,2.29,5.03
12.068535804748535,0.79,-2.67,0.26,2.79
12.078563928604126,4.61,-0.73,1.37,4.86
12.088418006896973,-0.7,0.99,-2.39,2.67
12.09880781173706,-3.67,1.01,3.75,5.34
12.116905927658081,0.32,-0.25,0.15,0.43
12.119000911712646,1.86,0.63,-1.58,2.52
12.128742933273315,-0.97,-2.68,0.21,2.85
12.138298034667969,-0.58,1.59,-0.3,1.71
12.148652076721191,0.32,1.14,0.84,1.45
12.165740966796875,0.49,0.37,0.76,0.97
12.16774606704712,0.99,-4.33,5.39,6.98
12.178060054779053,1.35,1.13,-5.93,6.18
12.18797779083252,0.91,3.31,5.31,6.32
12.198201894760132,-0.34,3.63,-4.89,6.09
12.215405941009521,-2.15,1.36,-5.46,6.02
12.217514038085938,-0.15,-6.04,1.42,6.2
12.231647968292236,1.54,0.38,3.7,4.02
12.237391948699951,-0.32,-0.41,4.95,4.97
12.248355865478516,-2.92,0.26,-0.51,2.97
12.265101909637451,-0.79,3.29,-3.37,4.77
12.267502784729004,2.56,-5.06,-6.71,8.78
12.281714916229248,2.1,-2.68,-0.54,3.44
12.287106990814209,-1.12,3.66,1.58,4.14
12.297559976577759,-0.19,-1.88,5.6,5.91
12.314291954040527,1.36,2.96,-1.09,3.43
12.31687593460083,0.71,-3.72,2.04,4.3
12.327892780303955,-1.14,4.83,-6.33,8.04
12.337033987045288,-0.13,-2.66,-0.36,2.68
12.34745192527771,2.06,-2.87,-1.66,3.9
12.364668846130371,1.42,3.11,1.56,3.75
12.366667985916138,-1.6,0.38,-1.56,2.26
12.377624988555908,-1.6,8.23,-2.55,8.76
12.386664867401123,1.13,-2.73,-2.04,3.59
12.3974609375,0.85,-2.56,-2.01,3.36
12.414751052856445,-1.23,-2.38,6.67,7.18
12.416786909103394,-1.65,0.94,4.3,4.7
12.426778793334961,-1.14,-0.68,-5.94,6.08
12.436592102050781,-1.3,1.44,-3.5,4.0
12.446884870529175,-0.98,-4.98,0.96,5.16
12.46418809890747,-1.27,2.41,2.66,3.8
12.466216087341309,0.8,4.5,4.48,6.4
12.476226806640625,6.15,1.22,-3.04,6.96
12.486346960067749,6.13,-6.99,-2.24,9.56
12.496616840362549,-6.22,-2.19,-2.63,7.09
12.514185905456543,-12.95,8.49,7.13,17.04
12.516226768493652,-4.64,-2.57,1.31,5.46
12.526614904403687,6.23,-2.29,-1.3,6.76
12.536014080047607,7.32,-1.43,-2.07,7.74
12.546483039855957,-1.06,0.76,3.31,3.55
12.56351375579834,-2.61,3.51,-2.78,5.18
12.565668106079102,4.29,-3.0,-0.09,5.23
12.575840950012207,1.03,5.54,-8.99,10.61
12.585843086242676,-2.16,-4.75,16.88,17.66
12.596161842346191,-2.11,-2.59,-8.2,8.85
12.613409996032715,3.05,5.21,3.41,6.93
12.615646839141846,2.61,-2.34,-4.79,5.93
12.625435829162598,-2.38,1.4,-12.67,12.96
12.635820865631104,-2.82,0.18,6.9,7.45
12.64586591720581,1.51,-4.71,1.38,5.13
12.663733005523682,1.51,4.74,3.81,6.26
12.665571928024292,-1.77,-2.03,-1.04,2.88
12.675132751464844,0.08,-4.98,-0.49,5.0
12.685032844543457,3.22,0.49,2.87,4.34
12.695684909820557,-0.68,2.03,-5.17,5.59
12.713819026947021,-5.24,4.22,-1.91,6.99
12.715900897979736,-1.7,-5.8,6.79,9.09
12.725357055664062,0.88,3.78,-10.35,11.05
12.734992980957031,-0.4,-4.97,6.6,8.27
12.745660781860352,-3.69,-1.74,-8.03,9.0
12.76272201538086,-3.28,6.7,10.04,12.5
12.764817953109741,-0.19,-4.16,-0.06,4.16
12.774581909179688,0.72,-0.72,5.84,5.92
12.784867763519287,-2.83,1.57,-5.68,6.53
12.795366764068604,0.64,-0.01,6.99,7.01
12.81287693977356,4.42,0.41,-4.81,6.54
12.81495475769043,-0.41,0.64,-10.08,10.1
12.824601888656616,-4.45,-1.96,6.84,8.39
12.834873914718628,-2.07,-0.65,-2.33,3.18
12.845111846923828,3.88,2.31,9.05,10.11
12.862364768981934,2.0,-3.8,-4.59,6.28
12.864391803741455,-1.48,7.01,-5.74,9.18
12.874291896820068,-0.5,-5.42,-3.5,6.47
12.884070873260498,1.33,6.04,-3.14,6.93
12.894979000091553,0.15,-3.14,0.93,3.27
12.913053035736084,-3.98,-1.52,3.82,5.72
12.915178775787354,-1.75,-2.12,8.78,9.2
12.923898935317993,1.53,3.17,-4.74,5.9
12.934009075164795,4.06,2.09,1.07,4.69
12.945422887802124,-0.84,-1.14,-16.94,16.99
12.962509870529175,3.04,-6.39,15.44,16.98
12.96448278427124,-1.87,7.82,-12.62,14.96
12.973631858825684,-0.79,-0.44,1.83,2.04
12.984057903289795,2.95,-5.75,-0.78,6.5
12.99343490600586,-1.13,0.44,7.72,7.81
13.011109828948975,0.72,-8.9,5.25,10.35
13.013341903686523,-4.93,12.48,0.98,13.45
13.02317476272583,-2.73,-4.63,-3.85,6.61
13.033369064331055,1.26,-1.51,2.81,3.42
13.043322086334229,3.91,-0.41,0.77,4.0
13.060286045074463,-4.22,-2.58,-2.99,5.77
13.062901973724365,-5.98,12.48,-3.08,14.17
13.073141098022461,-0.68,-2.97,1.16,3.26
13.083333015441895,5.4,-7.89,-2.3,9.83
13.093339920043945,0.54,4.5,1.92,4.92
13.110122919082642,-5.44,4.32,-9.47,11.74
13.112623929977417,-0.55,-3.98,10.89,11.6
13.12255597114563,4.03,-7.7,0.04,8.69
13.132877826690674,-0.7,10.62,-6.8,12.62
13.142952919006348,-3.19,-1.22,-0.23,3.42
13.160536766052246,5.14,-11.7,5.82,14.04
13.162635803222656,4.54,2.7,-11.1,12.29
13.17256498336792,-6.74,0.61,7.64,10.2
13.182967901229858,-6.35,-3.61,2.32,7.66
13.192331790924072,5.75,0.5,11.73,13.07
13.209709882736206,3.78,-1.92,-1.71,4.57
13.212121963500977,-4.47,6.33,-0.03,7.74
13.222074031829834,-2.01,-3.86,-4.07,5.95
13.232481956481934,4.62,-3.33,-9.65,11.2
13.24239206314087,-1.62,7.67,-13.0,15.18
13.25960397720337,-9.23,3.74,-6.8,12.05
13.262351989746094,-3.44,-8.34,14.07,16.71
13.27178692817688,4.52,-6.97,11.96,14.56
13.281797885894775,-0.42,7.82,4.27,8.91
13.292297840118408,-8.81,5.05,0.45,10.16
13.309225082397461,-3.56,3.19,-8.06,9.37
13.311978816986084,2.04,1.2,-6.06,6.5
13.32149076461792,-1.27,-2.36,-7.57,8.03
13.331757068634033,-4.2,0.75,9.48,10.39
13.341714859008789,-1.89,-0.96,4.93,5.36
13.358884811401367,0.78,6.25,2.08,6.63
13.36150598526001,0.42,-4.99,4.85,6.97
13.371615886688232,-1.95,5.45,-7.19,9.23
13.381382942199707,-5.67,2.36,-12.56,13.98
13.391141891479492,-8.15,0.11,-4.85,9.48
13.4083890914917,0.45,-9.71,9.71,13.73
13.411361932754517,7.82,-3.26,5.39,10.04
13.421566009521484,0.55,2.35,11.15,11.4
13.431081771850586,-7.65,6.93,-8.36,13.28
13.441857814788818,-0.93,-4.61,5.84,7.49
13.459017753601074,3.56,1.05,-8.86,9.6
13.461270809173584,-0.93,1.93,-1.97,2.91
13.470692873001099,-4.58,-5.31,7.85,10.52
13.480847835540771,-0.84,4.75,0.12,4.82
13.490831851959229,0.39,-3.45,-3.55,4.96
13.507845878601074,-1.81,-0.31,-1.5,2.37
13.510819911956787,-2.2,0.94,3.4,4.15
13.520448923110962,-2.37,1.55,-6.65,7.22
13.5307297706604,-1.81,-3.66,14.04,14.62
13.540910959243774,-0.85,-3.26,-7.84,8.53
13.558242797851562,1.61,-5.09,1.44,5.52
13.56034803390503,0.75,-3.02,5.17,6.03
13.570507049560547,-1.82,7.77,2.68,8.41
13.580245971679688,-2.37,-14.4,0.51,14.6
13.590297937393188,-2.19,5.83,-6.21,8.79
13.607347965240479,-1.97,10.6,-14.61,18.15
13.610076904296875,1.31,-14.89,8.87,17.38
13.62016487121582,3.35,-2.32,8.61,9.52
13.629901885986328,-1.94,3.07,5.99,7.0
13.640151977539062,-6.5,4.94,-4.61,9.37
13.657644748687744,-0.47,1.23,-4.07,4.27
13.660154819488525,5.91,-10.2,0.68,11.8
13.669612884521484,1.05,7.85,-18.7,20.3
13.679924964904785,-3.8,1.36,4.73,6.21
13.689929008483887,-2.59,-5.54,7.39,9.59
13.707005023956299,-0.54,-2.86,8.28,8.77
13.709532976150513,-0.16,4.23,-0.15,4.23
13.719543933868408,-1.15,-0.55,2.2,2.54
13.72977089881897,4.66,-7.71,-1.62,9.15
13.739778995513916,2.81,12.31,-19.39,23.13
13.756326913833618,1.76,7.16,-19.47,20.81
13.75936508178711,4.77,-5.46,-5.35,9.01
13.769723892211914,-0.95,0.41,29.49,29.5
13.779883861541748,-9.53,-13.62,20.71,26.55
13.789565086364746,-1.03,0.29,2.66,2.86
13.807096004486084,5.19,11.59,-18.45,22.39
13.80932092666626,8.01,-5.07,-11.43,14.84
13.819354057312012,13.46,-17.44,8.93,23.77
13.8294358253479,-6.7,9.93,-7.22,13.98
13.838822841644287,-10.42,18.72,5.9,22.22
13.85522985458374,-8.87,-10.58,4.12,14.4
13.858805894851685,6.81,-8.36,-2.19,11.0
13.86864185333252,7.52,-2.38,1.53,8.03
13.87919807434082,2.43,-5.98,-4.12,7.65
13.88857388496399,-3.72,14.78,-6.72,16.65
13.905457019805908,0.93,-6.24,9.67,11.54
13.90852689743042,2.56,-11.21,-3.08,11.9
13.918769836425781,-2.76,8.01,3.16,9.04
13.928621768951416,-7.45,9.34,-6.98,13.83
13.938913822174072,1.29,1.76,5.45,5.87
13.95577597618103,9.76,-14.21,0.24,17.24
13.958313941955566,4.02,-1.12,2.03,4.64
13.968303918838501,-5.05,5.77,-0.02,7.66
13.979228973388672,-0.87,0.25,6.49,6.55
13.988159894943237,5.41,-4.51,-3.71,7.96
14.005883932113647,1.32,0.25,-7.29,7.41
14.008322954177856,-5.61,3.24,-9.28,11.31
14.018375873565674,-4.16,5.33,-1.45,6.91
14.029143810272217,3.39,-7.69,10.94,13.79
14.03787088394165,5.59,-7.68,2.6,9.84
14.055360794067383,-0.24,6.71,-0.78,6.75
14.05770993232727,-3.52,1.72,1.09,4.06
14.06771183013916,1.97,1.82,4.8,5.49
14.078778982162476,4.88,-4.18,-3.17,7.16
14.087454795837402,-0.97,11.16,-5.24,12.36
14.104747772216797,-3.98,0.55,1.82,4.41
14.107333898544312,-0.53,-6.34,0.49,6.38
14.117564916610718,0.01,5.43,2.54,5.99
14.128324031829834,-2.22,2.4,-0.93,3.39
14.137736797332764,-2.06,0.31,4.86,5.28
14.155214786529541,0.52,0.26,-3.71,3.75
14.157466888427734,-0.8,1.61,-5.81,6.08
14.167218923568726,-3.5,-0.92,-2.5,4.39
14.177819967269897,-6.98,12.27,-3.08,14.44
14.187330961227417,-3.77,-7.23,8.94,12.09
14.204741954803467,1.75,-1.91,-4.45,5.14
14.20675802230835,3.71,3.9,6.11,8.14
14.217015981674194,-1.13,0.24,-13.87,13.91
14.227112770080566,-2.45,-0.18,4.82,5.4
14.237121105194092,-2.4,-6.37,1.73,7.02
14.254771947860718,-0.29,-1.2,4.04,4.22
14.256793022155762,-3.13,4.34,-1.41,5.53
14.266867876052856,-0.97,-0.66,6.2,6.31
14.276825904846191,2.44,-2.57,-4.43,5.67
14.28676176071167,0.48,-1.21,1.32,1.85
14.303765773773193,-2.43,-2.12,-4.74,5.73
14.306585788726807,-0.16,4.24,0.19,4.24
14.316541910171509,2.32,-3.23,-0.69,4.03
14.326323986053467,0.76,-0.16,-0.49,0.91
14.336488962173462,-1.6,3.35,3.99,5.45
14.353832960128784,-0.89,-2.62,-10.5,10.85
14.356207847595215,2.49,1.46,-3.08,4.22
14.366184949874878,1.92,-6.21,-1.0,6.57
14.3766028881073,-0.89,2.14,8.65,8.95
14.386014938354492,-2.32,1.76,3.48,4.53
14.403773784637451,0.28,-5.36,-0.01,5.36
14.405829906463623,0.75,6.05,-5.58,8.26
14.416303873062134,1.91,-5.33,7.43,9.34
14.425757884979248,0.98,-2.77,-8.21,8.71
14.435712814331055,-0.42,3.89,5.76,6.96
14.453571796417236,-1.9,-4.63,-2.58,5.63
14.455580949783325,2.67,-3.11,9.02,9.9
14.466010093688965,4.11,-2.72,-0.03,4.92
14.4757559299469,0.19,-0.77,-0.56,0.97
14.485459804534912,-3.04,5.34,-7.94,10.03
14.502785921096802,-0.65,0.73,-0.87,1.3
14.505553960800171,2.53,3.02,-7.87,8.8
14.515876770019531,3.04,-5.4,4.01,7.38
14.52566909790039,1.54,-2.49,1.26,3.18
14.53541898727417,0.22,2.35,10.6,10.85
14.552650928497314,-1.08,1.6,-1.35,2.35
14.555036067962646,2.45,0.39,-3.0,3.89
14.565213918685913,5.56,-4.78,-7.49,10.48
14.575212955474854,2.2,5.0,-6.8,8.72
14.584861755371094,-3.44,3.87,7.17,8.84
14.602447986602783,-2.29,1.44,1.79,3.24
14.604613780975342,3.72,-1.12,-0.15,3.88
14.61548900604248,1.0,0.6,-6.47,6.57
14.624716758728027,-1.8,-1.06,1.66,2.66
14.635356903076172,2.14,-2.43,-4.6,5.62
14.653270959854126,4.12,4.43,5.39,8.1
14.655450820922852,-1.63,-0.1,-4.18,4.48
14.6647310256958,-3.0,6.38,0.56,7.07
14.674399852752686,2.22,-5.67,-3.36,6.95
14.684755802154541,5.76,3.01,0.3,6.5
14.702220916748047,2.91,0.08,2.62,3.91
14.704434871673584,-1.81,-5.41,2.6,6.26
14.714943885803223,-1.51,7.04,-4.58,8.53
14.724605083465576,1.3,-0.78,2.37,2.81
14.734320878982544,2.17,-3.54,0.89,4.24
14.751564025878906,-0.5,1.1,4.76,4.91
14.753989934921265,-1.57,-2.96,-2.55,4.21
14.764746904373169,-0.4,5.65,-5.02,7.56
14.77416706085205,1.89,-9.02,1.06,9.27
14.784024953842163,1.45,-2.64,3.56,4.66
14.80154275894165,-1.42,-1.41,-1.43,2.45
14.8037428855896,-1.57,-1.26,2.9,3.53
14.81419587135315,1.92,2.11,1.14,3.07
14.823956966400146,3.21,-1.77,1.65,4.01
14.834169864654541,0.05,6.39,-7.78,10.06
14.851648807525635,-0.99,0.61,2.78,3.01
14.853847980499268,2.06,-5.92,-0.43,6.28
14.863883972167969,3.18,2.43,2.56,4.75
14.87362003326416,0.12,-4.78,3.15,5.72
14.883555889129639,-0.8,8.21,1.31,8.35
14.90281891822815,1.66,-4.67,1.38,5.14
14.905274868011475,2.94,-0.77,-3.09,4.33
14.913583755493164,-0.14,2.62,-5.94,6.49
14.923290967941284,-1.76,0.96,0.0,2.0
14.933650970458984,-0.25,1.05,1.51,1.85
14.951807975769043,2.54,-3.19,5.14,6.56
14.954050064086914,0.95,3.7,-6.11,7.2
14.963612079620361,-1.01,0.6,-1.31,1.75
14.973031044006348,-0.39,2.47,-2.29,3.39
14.983613967895508,0.63,-3.25,0.66,3.37
15.002932071685791,-0.31,3.44,1.36,3.71
15.00518798828125,-1.34,-1.66,3.52,4.11
15.01298189163208,-1.63,6.15,-0.83,6.41
15.022911071777344,-1.71,-2.6,5.69,6.48
15.03334379196167,0.29,-1.64,-4.43,4.73
15.05207109451294,-1.95,8.03,-4.71,9.51
15.054176807403564,-3.25,-1.39,-0.41,3.55
15.062642097473145,-0.21,-2.09,-3.58,4.15
15.072938919067383,1.37,3.24,-0.36,3.53
15.082473754882812,-2.08,0.27,3.15,3.78
15.09975290298462,-2.88,-2.9,4.17,5.83
15.102039813995361,0.08,-0.14,1.11,1.12
15.112691879272461,-0.19,0.98,-0.57,1.14
15.121932029724121,-1.24,-1.4,-3.53,3.99
15.132504940032959,0.09,1.1,4.3,4.43
15.15059494972229,1.44,-6.55,2.94,7.32
15.152620792388916,-1.2,7.9,-5.6,9.75
15.162195920944214,-2.12,-0.46,-1.44,2.6
15.172082901000977,1.41,-2.64,-4.49,5.39
15.18228793144226,1.31,6.63,0.56,6.78
15.20008897781372,-2.62,-7.98,6.62,10.69
15.202116012573242,-2.64,7.57,-0.5,8.03
15.212801933288574,-0.76,-3.79,-3.59,5.27
15.2220139503479,1.66,-1.18,1.83,2.73
15.232116937637329,1.89,-1.66,14.77,14.98
15.24960994720459,-1.31,-3.41,5.32,6.45
15.251637935638428,-4.2,4.61,0.74,6.28
15.262278079986572,-1.25,5.72,-10.63,12.13
15.271531105041504,3.82,-4.46,-4.43,7.35
15.281538009643555,3.7,-0.37,-10.25,10.9
15.299307823181152,-0.99,-3.05,2.31,3.95
15.301397800445557,-4.01,-0.53,-0.17,4.04
15.311301946640015,-3.01,5.23,-0.25,6.03
15.320981979370117,1.01,-2.71,-2.57,3.86
15.331614017486572,4.14,-6.08,4.19,8.46
15.349565029144287,-0.84,1.54,-3.54,3.95
15.351624011993408,-4.32,-0.27,0.96,4.43
15.360956907272339,-0.31,-4.55,-1.3,4.74
15.371066093444824,4.41,-2.22,3.53,6.06
15.381139755249023,0.22,2.25,-5.85,6.27
15.399455070495605,-2.83,4.91,-1.59,5.88
15.40151309967041,0.46,-4.14,-3.04,5.15
15.410753965377808,5.78,-3.25,5.0,8.3
15.420707941055298,2.41,-0.53,2.1,3.24
15.430871963500977,-4.05,7.58,-4.5,9.7
15.448424816131592,-1.8,1.31,-1.11,2.48
15.450439929962158,5.82,-8.49,2.19,10.52
15.460913896560669,4.85,0.39,-3.02,5.72
15.470842838287354,-2.84,7.23,-2.25,8.08
15.48075795173645,-1.91,2.71,-1.55,3.65
15.49876594543457,5.29,-1.29,0.81,5.5
15.500817775726318,5.21,1.71,0.98,5.57
15.510181903839111,-1.32,-1.01,0.21,1.67
15.520136833190918,-2.97,6.98,-4.96,9.06
15.530412912368774,1.6,1.75,-2.25,3.26
15.548022985458374,5.06,-4.3,-3.95,7.72
15.550050973892212,1.39,-1.07,-2.83,3.32
15.559782981872559,-0.79,-8.53,9.57,12.84
15.569735050201416,0.56,-4.39,4.64,6.41
15.580377101898193,1.19,-2.58,5.46,6.15
15.598475933074951,-0.57,-4.02,0.43,4.08
15.600493907928467,-0.13,-2.13,2.27,3.11
15.60958480834961,2.51,-5.93,-1.68,6.65
15.619638919830322,1.38,3.41,-8.43,9.19
15.63020396232605,-1.67,5.57,-3.87,6.98
15.648683071136475,-0.62,-5.05,1.98,5.45
15.650718927383423,1.42,2.13,4.32,5.02
15.659197807312012,-0.17,-2.66,1.22,2.93
15.669655799865723,-2.67,6.93,0.99,7.49
15.67958402633667,-0.17,3.32,-1.71,3.73
15.69715690612793,2.98,-3.82,-2.84,5.61
15.69922399520874,1.22,2.7,-5.53,6.27
15.709189891815186,-2.06,5.46,2.76,6.45
15.719055891036987,-1.5,4.18,3.17,5.45
15.729598045349121,1.98,1.32,0.12,2.38
15.747386932373047,1.5,0.78,-1.87,2.52
15.749407768249512,1.02,1.64,-0.18,1.93
15.758979797363281,0.83,-1.62,-4.23,4.6
15.768665790557861,1.25,-0.41,2.36,2.7
15.779387950897217,-1.69,-0.41,-0.5,1.8
15.797008037567139,-2.39,1.93,3.03,4.31
15.798998832702637,-0.18,-3.66,-1.56,3.98
15.808559894561768,2.17,-0.19,0.26,2.19
15.818586826324463,0.9,-1.63,-0.11,1.86
15.829424858093262,-0.86,-2.51,0.19,2.66
15.847364902496338,-0.61,-0.98,0.93,1.48
15.849397897720337,-0.64,-0.96,2.3,2.57
15.858304023742676,-0.9,4.06,4.79,6.34
15.868745803833008,0.09,-4.18,-1.05,4.31
15.878828048706055,0.88,3.07,-3.33,4.61
15.896581888198853,-1.02,6.03,-6.17,8.68
15.898580074310303,-0.77,-9.45,-0.98,9.53
15.908051013946533,0.43,6.16,-0.18,6.17
15.918287754058838,-0.66,2.94,-1.52,3.37
15.928228855133057,-1.13,-4.7,5.3,7.17
15.946391105651855,0.87,-2.97,7.39,8.01
15.948394775390625,0.68,7.36,-6.0,9.52
15.95760989189148,-2.22,6.13,-9.67,11.66
15.96792197227478,-1.52,-4.74,0.05,4.97
15.978447914123535,2.6,-5.07,4.06,6.99
15.996540069580078,1.35,3.61,3.37,5.11
15.998585939407349,-3.86,2.91,2.82,5.59
16.007344961166382,-2.35,0.24,0.84,2.5
16.01771593093872,2.74,-2.0,-2.71,4.34
16.027711868286133,2.3,-2.27,-1.66,3.63
16.045836925506592,-2.56,2.17,-3.35,4.74
16.04787588119507,-3.47,5.28,1.39,6.46
16.057199001312256,0.18,-3.24,-0.67,3.31
16.067543029785156,2.7,-4.25,4.62,6.83
16.077096939086914,0.28,0.85,1.97,2.16
16.095032930374146,-3.05,2.72,-3.05,5.09
16.0970458984375,-3.17,-0.97,-4.89,5.9
16.107165813446045,0.33,-0.11,2.43,2.45
16.117167949676514,2.08,-3.91,1.42,4.65
16.12745475769043,-0.11,2.12,2.47,3.25
16.14606809616089,-3.96,3.76,-0.23,5.46
16.1480929851532,-1.68,1.24,-4.35,4.82
16.156418800354004,2.25,-5.8,0.01,6.22
16.16701078414917,2.46,-1.95,-5.9,6.68
16.17645788192749,-1.01,-0.31,-1.39,1.74
16.19446086883545,-0.16,-4.84,7.49,8.91
16.19661283493042,1.84,-3.61,1.6,4.35
16.20627784729004,0.13,0.36,1.07,1.13
16.2165629863739,-2.23,3.48,-4.38,6.02
16.226618766784668,-0.38,4.74,-2.84,5.53
16.24544095993042,2.86,-5.67,5.21,8.21
16.247663021087646,0.15,-3.44,0.07,3.44
16.256319046020508,-6.12,3.62,-1.9,7.35
16.26650094985962,-2.55,3.94,-1.91,5.06
16.276611804962158,7.45,-7.9,3.95,11.55
16.2950599193573,5.53,-6.87,3.8,9.6
16.29724097251892,-7.79,5.68,0.08,9.64
16.305957794189453,-4.27,6.68,-3.64,8.72
16.316284894943237,10.74,4.22,-7.01,13.5
16.325849056243896,12.05,-8.08,-7.16,16.17
16.343682765960693,-3.12,4.42,9.21,10.68
16.34632682800293,-10.96,9.02,3.55,14.63
16.35544776916504,2.4,1.52,-2.91,4.06
16.36586904525757,11.07,-0.3,-10.85,15.5
16.375422954559326,6.71,-5.53,-3.15,9.24
16.394118785858154,-4.36,0.59,0.09,4.4
16.396909952163696,-5.09,1.74,7.64,9.34
16.405565977096558,1.37,-1.77,12.03,12.23
16.4152250289917,3.4,-5.4,2.16,6.73
16.425456047058105,1.15,-4.85,0.53,5.01
16.44379687309265,-0.31,2.67,-4.01,4.82
16.44623589515686,1.35,-2.48,-3.06,4.16
16.454871892929077,1.23,-3.82,-7.96,8.91
16.46489381790161,1.3,-3.06,-1.89,3.82
16.475162982940674,0.92,-2.5,4.83,5.51
16.493769884109497,3.29,-0.89,5.79,6.71
16.496264934539795,2.62,0.05,6.08,6.62
16.504668951034546,0.58,3.42,-1.3,3.7
16.514914989471436,0.2,-1.19,-7.62,7.71
16.524774074554443,2.3,2.29,0.63,3.3
16.543087005615234,2.2,0.09,0.65,2.29
16.545257091522217,-0.49,4.56,6.9,8.28
16.55441904067993,0.82,-1.31,1.77,2.34
16.564374923706055,3.42,0.2,-5.44,6.42
16.574181079864502,1.83,7.47,-2.0,7.94
16.593409061431885,-0.23,0.58,-2.05,2.14
16.595818042755127,0.19,-1.79,4.12,4.49
16.604196071624756,1.07,-2.04,-6.4,6.8
16.614165782928467,-3.17,4.49,2.5,6.03
16.624254941940308,-1.5,-2.09,5.02,5.64
16.64245891571045,0.91,-1.39,3.06,3.48
16.644632816314697,1.78,1.38,-0.65,2.34
16.653961896896362,0.04,-1.15,4.0,4.16
16.66428804397583,-0.07,-1.49,-1.97,2.47
16.673873901367188,-3.39,5.75,-3.3,7.44
16.69234275817871,-2.12,0.08,-0.94,2.32
16.694461822509766,0.57,1.93,-3.54,4.07
16.703999042510986,2.33,-3.3,0.79,4.11
16.71369981765747,-1.96,4.71,-7.37,8.96
16.72377300262451,-4.47,2.89,1.91,5.65
16.741610050201416,-2.1,-5.57,-0.33,5.96
16.74374485015869,0.84,0.8,-3.11,3.31
16.753796100616455,-2.69,-3.66,3.01,5.44
16.76391887664795,-2.63,-3.47,6.5,7.82
16.77348804473877,0.33,7.07,-0.83,7.12
16.791627883911133,-0.33,0.51,-7.45,7.47
16.793742895126343,-2.36,-0.75,-5.79,6.29
16.80326509475708,-1.2,0.98,-1.31,2.02
16.813488960266113,0.44,-2.2,4.72,5.22
16.82320499420166,-1.22,5.36,2.23,5.93
16.840977907180786,-4.41,-2.41,10.74,11.85
16.843048095703125,-1.79,1.57,-3.1,3.9
16.85297679901123,1.01,-1.83,-8.14,8.4
16.863651752471924,0.31,-1.11,-6.86,6.95
16.87288475036621,-1.58,0.31,2.77,3.2
16.89102077484131,-0.54,-5.19,8.35,9.84
16.893094062805176,-1.15,2.72,-1.59,3.35
16.90312910079956,-3.39,2.25,1.66,4.39
16.9130539894104,0.67,-2.67,-0.72,2.84
16.92306089401245,2.82,1.66,-5.19,6.13
16.941195011138916,-2.03,-2.66,1.05,3.5
16.944221019744873,-3.76,1.71,1.25,4.31
16.95238208770752,-1.26,4.34,-8.69,9.79
16.96334981918335,0.52,-2.57,0.61,2.69
16.972141981124878,3.05,-8.92,6.79,11.61
16.989966869354248,1.02,1.04,2.61,2.98
16.99210500717163,-3.8,1.98,4.86,6.47
17.002278804779053,-5.25,0.33,-3.72,6.44
17.013099908828735,0.16,-6.57,5.33,8.46
17.022119998931885,2.52,0.22,-6.28,6.77
17.04053783416748,-2.04,4.17,-3.58,5.86
17.042587757110596,-5.72,1.59,-0.73,5.98
17.051856994628906,-2.7,-2.75,0.82,3.94
17.062712907791138,0.29,-0.03,0.28,0.4
17.07180094718933,-1.0,4.9,1.67,5.27
17.09033489227295,-1.6,-2.04,1.32,2.9
17.092355966567993,-1.39,2.22,1.65,3.09
17.102015018463135,-0.06,0.3,-6.07,6.07
17.11178994178772,-0.05,4.53,-9.84,10.83
17.122014045715332,0.42,-7.41,10.37,12.75
17.141150951385498,-2.78,2.16,6.74,7.6
17.143290996551514,-3.27,2.15,-7.68,8.61
17.15133285522461,-0.6,-7.1,-0.17,7.12
17.16161584854126,7.04,-0.65,-0.18,7.07
17.171169757843018,7.1,-4.88,6.28,10.66
17.189563751220703,-2.14,6.78,-2.99,7.71
17.19154405593872,-5.76,0.49,2.26,6.2
17.201213836669922,-0.02,-4.06,-3.22,5.18
17.21124792098999,3.98,2.47,-1.55,4.93
17.221101760864258,2.5,-8.8,0.83,9.18
17.239824771881104,-1.3,8.33,-3.08,8.97
17.241859912872314,0.56,-4.18,7.57,8.66
17.251239776611328,1.01,-2.48,-0.19,2.68
17.26097297668457,-1.01,11.23,-1.39,11.36
17.270803928375244,-1.19,-5.47,-7.86,9.64
17.28992986679077,3.03,1.71,-5.03,6.11
17.292000770568848,3.18,4.8,-3.76,6.87
17.300675868988037,-0.58,-7.08,4.42,8.36
17.310698986053467,-5.51,-0.14,3.91,6.75
17.32114291191101,-3.82,1.02,9.63,10.41
17.34005880355835,0.85,5.48,-8.13,9.84
17.342082977294922,4.61,-1.43,-1.31,5.0
17.350526809692383,1.3,-2.04,-9.48,9.78
17.36070990562439,-2.13,-4.05,4.84,6.66
17.37031888961792,-2.88,3.42,-5.53,7.11
17.388647079467773,0.63,-0.17,14.85,14.86
17.390655994415283,-0.4,-8.72,-0.22,8.73
17.400641918182373,-1.32,5.62,1.22,5.9
17.41008687019348,0.5,-0.07,-14.92,14.92
17.41997194290161,5.02,-1.89,6.4,8.35
17.438729763031006,0.32,-2.05,1.6,2.62
17.440929889678955,-5.93,2.99,3.53,7.52
17.44994592666626,-2.61,-2.87,2.01,4.36
17.460089921951294,4.41,-0.44,6.18,7.6
17.4699649810791,2.3,1.28,-3.53,4.4
17.48909282684326,-0.57,-5.16,-2.33,5.69
17.491512775421143,0.12,7.01,-10.19,12.36
17.49971294403076,2.75,-1.47,1.44,3.43
17.509394884109497,0.57,-1.7,-0.5,1.86
17.51972794532776,-2.01,0.47,3.84,4.35
17.53811287879944,-2.5,1.22,-3.6,4.54
17.540320873260498,1.19,-0.74,6.28,6.43
17.54953908920288,3.09,-6.91,-2.84,8.08
17.55946683883667,1.18,1.21,5.4,5.65
17.569565773010254,-2.96,3.5,-3.41,5.71
17.588774919509888,-0.95,1.5,4.17,4.53
17.591049909591675,1.71,-2.81,-0.67,3.35
17.599568843841553,0.6,5.45,-4.52,7.1
17.609108924865723,-3.22,2.53,-7.97,8.96
17.619307041168213,-0.77,-0.31,1.53,1.74
17.637910842895508,0.55,-0.62,-10.37,10.4
17.640124797821045,-0.17,-5.84,7.0,9.11
17.648996829986572,-2.15,2.49,9.46,10.01
17.659069061279297,-2.74,0.14,-7.57,8.05
17.668978929519653,-4.42,1.23,4.31,6.29
17.68780279159546,-0.12,-0.93,2.74,2.89
17.68992590904236,1.95,-4.79,1.44,5.36
17.69894504547119,-2.07,6.59,0.69,6.94
17.708873748779297,-4.09,6.02,-4.44,8.52
17.718728065490723,0.82,-9.32,-2.97,9.81
17.737334966659546,2.37,5.4,-9.29,11.0
17.739481925964355,-0.8,-4.22,7.42,8.57
17.748451948165894,-3.38,-0.13,7.9,8.59
17.758062839508057,1.29,3.89,4.78,6.29
17.76855993270874,2.01,-4.32,-6.69,8.21
17.787603855133057,0.09,4.78,2.02,5.19
17.78968095779419,-0.92,-1.22,-5.13,5.35
17.79840898513794,0.6,0.36,-1.14,1.33
17.808034896850586,0.91,2.31,-6.86,7.29
17.818681955337524,0.46,-3.11,-0.62,3.2
17.837810039520264,-0.26,-6.1,8.3,10.3
17.839937925338745,0.32,0.85,3.75,3.85
17.84805202484131,0.43,6.36,1.27,6.49
17.858224868774414,1.62,-2.2,-2.57,3.75
17.867958068847656,0.95,0.17,-5.01,5.1
17.886682987213135,-0.1,-4.33,-0.29,4.34
17.88884401321411,-0.35,2.43,-3.04,3.9
17.8979389667511,1.53,-4.33,5.17,6.91
17.907673835754395,-0.78,4.9,-5.26,7.23
17.91806983947754,-1.83,-3.7,7.03,8.15
17.937864780426025,-0.28,-4.93,-4.89,6.94
17.93985891342163,1.49,7.7,0.34,7.85
17.94776678085327,-0.18,-5.97,-2.37,6.42
17.957045078277588,-2.04,0.21,5.01,5.41
17.96786093711853,-1.59,1.17,5.33,5.68
17.986788749694824,-0.68,-1.44,-0.43,1.64
17.988842964172363,-2.69,9.77,-10.47,14.57
18.000564098358154,-2.6,-5.5,7.88,9.95
18.006725788116455,-0.18,-1.51,-7.37,7.52
18.01722002029419,1.13,0.01,6.57,6.66
18.03585195541382,-0.13,6.71,-1.0,6.78
18.037817001342773,-2.31,3.95,3.63,5.84
18.050179958343506,-2.39,-6.85,0.89,7.3
18.056896924972534,-0.72,-0.12,-4.72,4.77
18.066976070404053,1.07,4.12,-3.53,5.52
18.085455894470215,2.6,-3.71,2.29,5.07
18.087474822998047,0.65,0.67,-3.82,3.93
18.101191997528076,-2.16,-1.48,-3.89,4.68
18.106247901916504,-1.15,-2.49,6.04,6.63
18.116771936416626,2.8,-0.97,5.1,5.89
18.135411977767944,0.48,5.49,-6.4,8.44
18.137402057647705,-2.27,-1.09,-1.98,3.2
18.15137004852295,0.37,-8.54,1.96,8.76
18.1559739112854,3.07,2.72,-2.36,4.73
18.167008876800537,0.69,4.14,1.52,4.46
18.185215950012207,-0.7,1.91,0.62,2.12
18.187166929244995,0.91,-1.81,2.83,3.48
18.20068883895874,1.78,-3.46,-6.5,7.57
18.20612907409668,0.95,6.1,1.88,6.45
18.216314792633057,0.18,2.83,-5.69,6.35
18.234932899475098,0.46,-1.45,3.69,3.99
18.23693084716797,0.34,-1.0,0.63,1.22
18.246309757232666,-0.72,-1.79,0.07,1.93
18.255740880966187,-1.02,6.69,-2.93,7.37
18.266201972961426,1.28,-0.79,-2.5,2.91
18.285099029541016,2.81,-6.52,-6.72,9.77
18.287128925323486,-0.49,4.91,-0.94,5.02
18.295988082885742,-2.14,-11.05,11.31,15.95
18.305604934692383,-1.33,8.16,4.86,9.59
18.316351890563965,1.2,-3.66,1.14,4.01
18.335251808166504,1.72,-2.9,-2.89,4.44
18.337260961532593,1.16,6.1,0.25,6.21
18.345046997070312,-0.37,-7.94,-6.89,10.51
18.355452060699463,-1.26,6.77,-3.15,7.57
18.365376949310303,-1.4,-1.21,6.14,6.41
18.384591102600098,-0.41,-5.99,1.95,6.31
18.386626958847046,0.23,0.09,4.3,4.3
18.39521884918213,0.09,-1.19,-2.05,2.37
18.405144929885864,0.38,2.08,8.5,8.75
18.415520906448364,0.41,-0.45,-0.76,0.97
18.434709072113037,0.63,-1.62,-5.06,5.35
18.43672275543213,0.04,6.43,-7.84,10.13
18.444743871688843,0.19,0.54,-0.49,0.75
18.45494794845581,0.84,-3.4,2.38,4.23
18.464890003204346,1.34,1.02,2.14,2.72
18.483689785003662,0.13,3.66,-0.9,3.77
18.485792875289917,-0.54,0.23,-3.12,3.17
18.494812965393066,1.96,-0.25,0.71,2.09
18.504714965820312,3.55,-5.31,-2.93,7.02
18.515240907669067,1.07,2.95,-1.25,3.37
18.534270763397217,-1.45,2.55,-2.94,4.15
18.536460876464844,-1.09,-2.82,2.69,4.04
18.54436492919922,1.58,-2.48,3.92,4.9
18.55453896522522,3.21,-3.79,-1.38,5.15
18.564645767211914,0.34,1.97,-5.09,5.46
18.583579063415527,-1.56,0.82,0.65,1.87
18.58564805984497,-0.38,3.89,-1.03,4.04
18.594013929367065,0.18,-4.26,0.76,4.33
18.604293823242188,-0.57,-0.73,1.9,2.11
18.6146559715271,-0.21,3.83,-3.37,5.1
18.634159088134766,0.2,0.24,-3.74,3.75
18.63615393638611,-0.57,1.04,-3.42,3.61
18.64402675628662,0.77,-5.7,5.21,7.76
18.65393090248108,1.01,0.68,3.4,3.61
18.664350032806396,-0.16,3.53,0.51,3.57
18.683154106140137,-1.56,1.94,-1.45,2.88
18.6852068901062,0.94,-1.63,-0.78,2.03
18.69331192970276,1.98,-0.09,1.66,2.58
18.703598976135254,0.23,-0.78,4.28,4.35
18.714391946792603,-1.02,0.73,1.34,1.83
18.733340978622437,-1.07,0.32,0.99,1.49
18.735437870025635,-0.41,-1.12,-3.06,3.28
18.743051052093506,-0.88,3.05,-6.33,7.08
18.753729820251465,-0.33,-1.66,4.89,5.17
18.763614892959595,1.24,-2.13,8.29,8.64
18.78282594680786,-0.79,2.23,-0.69,2.46
18.784862995147705,-2.87,2.79,-2.62,4.78
18.79280185699463,1.11,-0.85,-2.19,2.59
18.802781105041504,3.41,-3.21,-2.5,5.3
18.81308889389038,-0.66,1.02,0.84,1.47
18.832345962524414,-3.19,1.58,0.99,3.69
18.834372997283936,-0.86,4.32,-0.65,4.45
18.842617988586426,0.3,0.13,-6.09,6.09
18.852820873260498,1.22,-4.77,8.62,9.92
18.863443851470947,0.18,0.19,-5.9,5.9
18.883075952529907,-2.11,-0.49,-1.3,2.52
18.885098934173584,-1.64,-1.87,2.48,3.51
18.892180919647217,0.13,-0.43,4.67,4.69
18.902400970458984,-0.32,-2.69,-3.3,4.26
18.913228034973145,-2.8,3.7,1.76,4.96
18.93213701248169,-2.45,3.07,-5.38,6.66
18.934125900268555,0.09,2.79,-2.25,3.58
18.941679000854492,0.78,-4.54,-0.34,4.61
18.95271396636963,-0.02,-0.93,5.43,5.5
18.962020874023438,-0.63,0.99,1.29,1.74
18.9812228679657,-0.86,0.96,-1.21,1.76
18.983243942260742,0.32,0.54,2.13,2.22
18.991739749908447,1.99,1.02,0.02,2.23
19.0017409324646,2.37,0.28,1.45,2.79
19.01175880432129,-0.37,-0.78,0.69,1.1
19.031578063964844,-1.72,-0.65,1.31,2.25
19.03358793258667,0.19,2.54,0.34,2.56
19.041231870651245,2.27,1.98,-3.75,4.8
19.051901817321777,0.77,1.49,-6.6,6.8
19.061652898788452,-0.48,-2.5,-5.96,6.48
19.08043098449707,2.11,-5.6,4.4,7.42
19.082440853118896,2.32,1.31,1.59,3.1
19.091331958770752,-3.88,5.14,1.83,6.69
19.101805925369263,-3.23,1.59,1.53,3.91
19.111063957214355,7.21,-8.4,-2.67,11.38
19.13082504272461,11.23,-7.12,-6.66,14.87
19.13313889503479,0.63,7.29,-1.22,7.41
19.140723943710327,-8.48,7.86,7.7,13.89
19.15131902694702,-3.32,-8.81,2.74,9.8
19.160860061645508,6.8,0.58,-4.27,8.05
19.179565906524658,3.8,-2.61,-4.75,6.61
19.181724071502686,-1.05,0.93,2.84,3.16
19.190885066986084,0.11,-0.43,1.08,1.16
19.200736045837402,2.94,-4.83,1.98,5.99
19.2110378742218,-0.77,6.21,0.43,6.27
19.230361938476562,-1.13,-4.11,3.53,5.53
19.232648849487305,0.94,1.06,-3.31,3.6
19.24022889137268,2.01,2.73,-2.57,4.25
19.250854015350342,-1.05,-0.98,-0.87,1.67
19.26030206680298,-1.84,1.86,3.19,4.12
19.27904176712036,-1.47,-3.89,1.0,4.27
19.28123903274536,1.06,2.63,0.56,2.89
19.290109872817993,1.97,-1.3,-0.19,2.36
19.30055809020996,1.81,-4.59,6.81,8.4
19.309839963912964,0.67,0.85,4.51,4.63
19.328698873519897,-0.3,1.74,-2.63,3.16
19.330957889556885,0.82,-2.17,-1.98,3.04
19.339920043945312,1.41,-0.84,-9.56,9.69
19.34980297088623,0.86,-0.61,-7.11,7.18
19.35976791381836,1.38,3.48,-8.2,9.01
19.379202842712402,3.6,-4.96,-1.52,6.31
19.381633758544922,3.08,2.17,-2.39,4.46
19.389524936676025,1.27,1.8,3.93,4.5
19.39940094947815,1.25,1.04,4.72,4.99
19.410141944885254,3.09,-0.46,8.82,9.35
19.429627895355225,2.23,0.89,4.26,4.89
19.431635856628418,-0.46,4.42,-4.52,6.33
19.439198970794678,-0.93,2.03,-5.8,6.21
19.450084924697876,-0.17,0.95,-11.35,11.39
19.459353923797607,1.93,-7.7,-1.29,8.04
19.47822380065918,4.75,-4.28,8.25,10.43
19.48066282272339,1.95,3.71,6.13,7.42
19.489030838012695,-4.04,5.23,2.48,7.05
19.49893808364868,-4.19,-0.52,-6.86,8.05
19.50903606414795,0.75,-6.84,-2.18,7.21
19.52813696861267,1.91,-1.93,-0.98,2.88
19.53030490875244,-3.49,3.84,-3.26,6.12
19.53917098045349,-3.41,0.52,7.2,7.98
19.54867696762085,1.87,-4.21,1.64,4.88
19.5591299533844,1.11,1.27,3.75,4.11
19.578392028808594,-5.75,6.36,0.67,8.6
19.580458879470825,-4.82,4.55,2.69,7.15
19.58842396736145,1.18,0.43,-3.2,3.43
19.599432945251465,1.42,-3.75,-2.18,4.56
19.6087908744812,-2.96,2.86,-3.33,5.29
19.62999391555786,-3.5,-1.79,6.11,7.26
19.632296085357666,-0.04,-0.01,2.8,2.8
19.63814401626587,0.52,1.57,0.3,1.68
19.649005889892578,-1.35,-0.37,-5.7,5.86
19.658360958099365,-0.57,3.63,-5.46,6.58
19.678159952163696,1.83,0.6,1.98,2.76
19.68028688430786,1.51,2.22,-1.25,2.96
19.68801784515381,-2.5,4.62,-7.65,9.27
19.69909691810608,-0.92,-1.01,-0.02,1.36
19.707796096801758,2.09,-5.2,-0.37,5.61
19.726868867874146,1.67,-5.8,4.89,7.76
19.72902202606201,-3.01,2.08,-1.74,4.05
19.73817205429077,-1.56,-1.36,2.22,3.03
19.748344898223877,3.04,-5.91,3.64,7.57
19.75801396369934,1.33,-2.76,1.47,3.39
19.77698802947998,-4.39,1.35,-2.86,5.41
19.779130935668945,-1.7,-0.39,1.67,2.41
19.787510871887207,2.99,-0.7,-1.39,3.37
19.799665927886963,0.24,-1.19,-0.59,1.34
19.80736207962036,-3.83,-0.14,-3.66,5.29
19.82693910598755,-0.84,0.87,2.3,2.59
19.828964948654175,2.12,-2.05,1.8,3.45
19.837260961532593,-1.38,3.93,1.42,4.4
19.849544048309326,-3.34,-1.16,4.79,5.95
19.8572359085083,-0.32,7.34,-1.29,7.45
19.877617835998535,1.71,-0.21,-4.85,5.14
19.879729986190796,0.03,0.9,-7.56,7.61
19.887322902679443,-0.69,-1.14,-0.41,1.39
19.901237964630127,0.63,0.74,0.79,1.25
19.906726837158203,0.59,1.45,-0.39,1.61
19.92627477645874,-2.06,0.5,2.19,3.04
19.92838478088379,-0.45,-2.65,3.0,4.02
19.936661958694458,2.88,-2.01,-1.71,3.9
19.94695281982422,2.39,2.11,-5.64,6.47
19.956645011901855,-0.82,5.9,-1.55,6.15
19.975872039794922,0.47,-6.42,4.13,7.64
19.9779269695282,1.44,-0.51,-7.15,7.31
19.986592769622803,-0.06,1.68,1.32,2.13
19.996828079223633,-0.03,-0.11,3.47,3.47
20.00625705718994,5.87,-4.32,3.14,7.93
20.02543878555298,3.9,0.74,-4.78,6.21
20.02752685546875,-1.15,2.71,-0.17,2.94
20.036125898361206,-1.73,-2.47,-5.34,6.13
20.04631495475769,3.44,0.06,4.85,5.94
20.056222915649414,1.24,0.18,-5.05,5.2
20.076233863830566,-1.45,-2.99,3.77,5.02
20.07828187942505,-1.26,-3.31,1.38,3.8
20.086266040802002,0.99,3.24,0.93,3.51
20.096099853515625,0.72,-3.99,0.41,4.07
20.10605001449585,0.05,-0.58,-1.24,1.36
20.125117778778076,-1.83,1.74,2.99,3.91
20.127144813537598,-1.92,3.24,-2.38,4.45
20.135602951049805,-0.51,0.64,-6.05,6.1
20.146044969558716,0.98,-1.84,-1.09,2.35
20.155652046203613,-0.5,1.77,1.12,2.15
20.175591945648193,-1.96,-1.91,5.92,6.52
20.177606105804443,0.13,-0.27,1.55,1.57
20.185373783111572,1.56,2.21,-2.03,3.38
20.195508003234863,1.35,0.41,2.18,2.59
20.20562195777893,-0.49,-2.6,0.34,2.66
20.2250337600708,-0.65,2.49,-2.44,3.54
20.226988792419434,0.26,1.15,-3.3,3.5
20.235435962677002,0.73,-2.1,0.56,2.29
20.2452449798584,0.3,-2.53,-0.61,2.61
20.2551748752594,-0.14,-0.83,2.33,2.47
20.275084972381592,0.88,0.87,0.44,1.31
20.277094841003418,2.0,1.67,0.71,2.7
20.284961938858032,1.5,0.76,-1.87,2.51
20.295289993286133,0.15,1.39,-5.45,5.62
20.304811000823975,0.02,-0.51,1.0,1.12
20.32464075088501,0.76,-0.9,-1.28,1.73
20.326626777648926,-0.09,1.64,2.33,2.85
20.33467698097229,-1.31,-2.93,1.68,3.62
20.344947814941406,0.87,2.21,-0.38,2.4
20.354400873184204,1.29,5.47,-8.05,9.81
20.374043941497803,-0.36,-1.66,0.95,1.94
20.37599802017212,-0.48,1.45,1.83,2.38
20.384394884109497,0.94,-0.55,-1.68,2.0
20.39434576034546,-1.25,1.68,0.38,2.12
20.404546976089478,-2.32,-3.21,10.6,11.31
20.42440176010132,-0.38,-5.08,4.59,6.85
20.426540851593018,-1.23,5.97,-6.59,8.97
20.434332847595215,-3.58,0.71,-9.89,10.54
20.444074869155884,-1.47,-0.49,-2.64,3.06
20.454171895980835,0.81,-1.34,1.95,2.5
20.474037885665894,0.9,-3.49,5.67,6.71
20.476101875305176,-0.57,7.66,3.1,8.28
20.483948945999146,-1.32,0.96,-0.47,1.69
20.493847846984863,-0.81,-4.31,0.73,4.44
20.504028797149658,-0.5,1.26,-2.25,2.62
20.52363395690918,-1.2,-0.35,-0.9,1.54
20.525694847106934,-0.42,4.5,-2.38,5.1
20.533688068389893,-0.62,1.98,-3.1,3.73
20.54373598098755,-1.38,-1.25,0.03,1.86
20.553466796875,-0.48,-0.57,-4.74,4.79
20.573194980621338,1.0,0.48,2.46,2.69
20.575315952301025,0.33,-1.47,-2.0,2.5
20.583871841430664,-2.05,1.44,0.9,2.66
20.593434810638428,-0.11,-10.18,6.24,11.94
20.603450775146484,0.89,-0.25,3.28,3.4
20.623013019561768,-2.47,4.44,1.6,5.32
20.62511897087097,-2.53,1.97,-6.06,6.85
20.633233070373535,1.26,-0.81,-5.76,5.95
20.64308500289917,1.96,-1.95,-5.69,6.32
20.653197765350342,-0.39,-4.6,6.22,7.74
20.672874927520752,-0.83,-0.36,9.85,9.89
20.675048828125,-0.24,4.96,3.67,6.17
20.68305778503418,0.4,0.18,-4.1,4.12
20.69301986694336,1.92,-3.09,-1.89,4.09
20.70311689376831,1.18,-2.21,-5.22,5.79
20.7227840423584,-1.35,0.32,-0.24,1.4
20.724888801574707,-1.98,2.95,1.93,4.04
20.732775926589966,-0.58,-0.35,6.88,6.91
20.74250078201294,-0.03,1.23,-2.79,3.04
20.752752780914307,-0.36,1.33,-3.79,4.03
20.77222490310669,-0.42,0.34,-5.65,5.67
20.77440881729126,2.1,0.26,3.27,3.89
20.782811880111694,0.25,-0.7,-2.36,2.47
20.792452812194824,-2.7,6.03,-0.38,6.61
20.80286693572998,-1.58,-1.44,-0.27,2.15
20.822700023651123,2.58,-2.45,0.49,3.59
20.8247549533844,1.81,1.38,-6.59,6.97
20.83207392692566,-0.5,2.05,-2.4,3.19
20.841892957687378,0.79,-0.84,1.72,2.07
20.852262020111084,1.74,0.3,0.92,1.99
20.87208890914917,-1.51,3.47,-2.54,4.55
20.87411403656006,-2.62,3.15,-1.73,4.44
20.88721990585327,1.7,-7.87,6.73,10.49
20.891761779785156,3.03,-3.55,4.46,6.45
20.90203094482422,-2.59,2.72,-0.66,3.81
20.921241760253906,-3.77,3.11,-6.73,8.31
20.923211097717285,1.76,-0.68,-3.68,4.13
20.93490505218506,4.0,-4.22,-1.44,5.99
20.941300868988037,-1.19,0.33,1.26,1.76
20.95175075531006,-4.63,0.45,5.01,6.83
20.971271991729736,0.74,-3.72,2.4,4.48
20.973187923431396,4.72,-1.92,7.36,8.95
20.984824895858765,2.64,-1.24,0.77,3.01
20.991039752960205,0.06,1.06,-4.85,4.96
21.001935958862305,0.65,-0.25,-3.45,3.51
21.02107000350952,1.43,-2.68,1.37,3.33
21.023025035858154,-0.41,-0.19,-4.88,4.9
21.03568387031555,-0.64,3.91,-1.53,4.24
21.040753841400146,3.48,-2.26,6.0,7.29
21.051349878311157,4.5,-0.75,6.92,8.28
21.07072401046753,0.58,-1.22,-3.52,3.77
21.072683811187744,-0.56,4.27,-3.41,5.49
21.08560085296631,2.64,-1.42,-0.94,3.14
21.090702056884766,1.27,5.01,-5.6,7.62
21.101015090942383,-1.56,-1.69,-3.5,4.18
21.120381832122803,1.05,2.31,-0.03,2.53
21.12232494354248,6.03,-3.51,3.74,7.91
21.135103940963745,3.57,1.48,2.45,4.57
21.14027190208435,-2.43,0.31,-0.43,2.48
21.150485038757324,-0.51,-1.02,-1.47,1.86
21.170105934143066,2.35,2.73,-3.81,5.24
21.172087907791138,0.92,-6.05,1.07,6.21
21.18022108078003,-1.31,-1.09,1.55,2.3
21.19034481048584,-0.35,-4.47,3.46,5.66
21.20072078704834,-0.09,1.18,-1.0,1.54
21.22047710418701,-1.38,3.57,5.93,7.05
21.222455978393555,-0.87,-3.64,-1.5,4.03
21.229825019836426,-0.01,6.74,-4.12,7.89
21.240524768829346,-1.51,-0.48,-6.66,6.84
21.25036597251892,-1.41,1.56,1.0,2.32
21.269486904144287,-1.61,2.41,0.54,2.94
21.271564960479736,-2.11,-0.93,6.8,7.18
21.279871940612793,-0.55,3.9,-1.67,4.27
21.289758920669556,1.27,-2.2,-5.05,5.65
21.300105094909668,-2.33,-2.43,3.85,5.11
21.31938886642456,-5.77,3.03,3.76,7.52
21.321542978286743,-5.43,7.07,-0.31,8.91
21.329723834991455,-1.49,-1.02,-8.0,8.2
21.339470863342285,1.16,0.11,3.21,3.41
21.350125789642334,-0.49,-2.04,-3.09,3.73
21.37003493309021,-3.77,0.78,0.84,3.94
21.372050762176514,-2.16,-0.23,0.15,2.17
21.37910509109497,0.71,3.13,-0.48,3.24
21.389266967773438,-0.33,-1.16,2.46,2.73
21.399459838867188,-1.72,-2.25,-4.52,5.33
21.418638944625854,-1.08,1.75,-2.53,3.26
21.420648097991943,0.24,-0.71,3.03,3.12
21.428817749023438,-0.05,-3.28,5.06,6.03
21.439332962036133,-0.81,3.16,-1.0,3.41
21.4492130279541,0.03,-2.17,2.38,3.22
21.468903064727783,1.64,-1.31,-1.69,2.69
21.470923900604248,0.67,-0.24,-0.05,0.71
21.478571891784668,-2.27,1.6,-6.06,6.66
21.488743782043457,-2.38,2.02,-1.9,3.65
21.499056816101074,1.97,-6.97,3.79,8.17
21.518692016601562,2.91,-4.08,4.81,6.94
21.52070188522339,-1.23,-0.5,0.72,1.51
21.528253078460693,-2.56,4.91,-0.76,5.58
21.5382399559021,2.2,-5.07,-0.09,5.52
21.549015045166016,2.76,-1.08,-6.71,7.33
21.56819486618042,-0.02,-3.02,1.44,3.34
21.57023000717163,-1.28,3.6,-1.99,4.3
21.57802677154541,0.64,0.88,3.72,3.87
21.58842706680298,0.72,-4.31,-3.28,5.46
21.598948001861572,1.81,-1.1,4.44,4.91
21.62154197692871,2.35,-0.15,-1.9,3.02
21.623775005340576,2.36,2.92,0.02,3.75
21.628726959228516,-0.09,2.22,-5.83,6.23
21.638020038604736,-1.01,3.37,-8.64,9.32
21.648097038269043,0.24,-6.2,-2.48,6.68
21.669437885284424,2.62,-0.02,8.14,8.55
21.6715030670166,2.05,-0.04,6.61,6.92
21.677742958068848,-1.82,4.39,-2.56,5.39
21.68745493888855,-0.17,-0.78,1.36,1.57
21.698782920837402,3.17,0.94,-8.7,9.3
21.718435764312744,4.01,2.4,-2.93,5.51
21.720486879348755,-0.29,2.33,-2.63,3.52
21.727173805236816,-1.59,0.98,5.79,6.08
21.73751187324524,-0.27,-3.49,0.83,3.59
21.747477054595947,2.31,-2.05,-1.77,3.55
21.76709294319153,3.38,-0.56,7.18,7.95
21.769110918045044,0.63,-0.91,5.65,5.75
21.776909828186035,-3.41,3.98,-2.26,5.7
21.787543773651123,-2.93,-0.4,-7.46,8.02
21.796902894973755,0.58,-3.29,-4.69,5.75
21.816670894622803,1.14,-4.48,3.48,5.78
21.818628787994385,-1.87,-0.64,1.82,2.68
21.826844930648804,-2.9,1.48,2.76,4.26
21.837095975875854,-0.57,-1.55,4.77,5.04
21.846807956695557,0.79,0.55,0.81,1.25
21.86709499359131,-0.34,0.77,-8.49,8.53
21.869163990020752,0.26,1.61,-3.34,3.71
21.876381874084473,2.24,0.08,6.03,6.43
21.88654899597168,0.21,-0.22,-0.84,0.89
21.896904945373535,-1.23,1.42,-4.78,5.13
21.91616201400757,1.67,-3.18,-1.45,3.87
21.918106079101562,3.56,1.31,-1.45,4.06
21.926086902618408,0.82,0.72,5.21,5.32
21.936625957489014,-0.07,-0.95,6.03,6.1
21.946279048919678,0.93,1.59,4.57,4.92
21.966082096099854,0.52,1.81,-1.6,2.47
21.96810007095337,0.72,-3.84,-0.78,3.98
21.975773811340332,2.02,-1.29,-2.44,3.42
21.986264944076538,0.57,1.87,-6.32,6.61
21.99608087539673,-1.44,1.71,-0.98,2.44
22.015039920806885,-1.28,-0.57,-2.33,2.71
22.017239093780518,0.76,0.78,-1.0,1.47
22.02583599090576,0.48,2.27,0.58,2.39
22.036123752593994,1.0,-3.4,4.55,5.76
22.04550075531006,1.0,-0.9,3.38,3.63
22.064465045928955,0.07,-3.46,1.67,3.84
22.066513061523438,-0.97,-1.74,1.16,2.3
22.075385093688965,-0.51,0.55,0.37,0.83
22.085800886154175,-1.36,2.23,-4.35,5.07
22.095624923706055,-2.03,1.1,-2.6,3.47
22.11490488052368,-1.1,1.93,-0.79,2.35
22.117056846618652,-0.38,3.01,-4.21,5.18
22.12503695487976,-1.56,-0.73,0.18,1.73
22.13589596748352,-2.53,-0.38,1.21,2.83
22.145274877548218,-1.9,2.02,6.82,7.36
22.16421890258789,-1.29,-0.33,3.17,3.43
22.166456937789917,-1.02,1.8,-1.67,2.65
22.174771785736084,-1.26,1.54,-10.81,10.99
22.185389041900635,-0.75,0.46,-6.13,6.19
22.194808959960938,-0.78,0.84,3.76,3.93
22.213829040527344,-0.35,-0.47,7.85,7.87
22.216053009033203,-0.51,1.44,2.85,3.23
22.22476577758789,-0.34,-3.25,-0.07,3.26
22.23507785797119,0.52,-2.75,-0.8,2.91
22.244858980178833,0.84,0.11,0.62,1.04
22.26371479034424,-0.72,0.41,1.37,1.6
22.26594591140747,-2.69,0.87,-5.24,5.95
22.27430295944214,-1.29,-3.63,-2.39,4.53
22.284698009490967,0.93,1.91,-7.21,7.51
22.29448175430298,1.28,-2.94,4.32,5.38
22.31331992149353,-0.68,2.23,0.79,2.46
22.31591796875,-1.7,1.37,2.89,3.62
22.32392692565918,-0.8,-0.21,-8.91,8.94
22.334333896636963,0.4,-1.49,1.92,2.46
22.34420108795166,0.84,-6.0,4.68,7.65
22.36373281478882,-1.0,3.01,2.2,3.86
22.36643886566162,-3.18,-0.31,-0.86,3.3
22.373782873153687,-0.65,-2.08,0.42,2.21
22.383792877197266,1.7,-1.72,-2.84,3.73
22.3939049243927,0.36,-0.22,-3.0,3.02
22.413278102874756,-0.89,1.03,-0.52,1.45
22.415591955184937,0.93,-2.41,5.6,6.16
22.42378282546997,0.66,2.25,-2.01,3.08
22.433592796325684,-0.97,-0.08,0.61,1.14
22.44389581680298,1.12,-4.17,-3.15,5.34
22.46342706680298,3.16,1.2,-1.87,3.86
22.465844869613647,0.54,0.73,-1.76,1.98
22.473259925842285,-1.48,2.12,3.83,4.62
22.483470916748047,0.27,0.2,-0.09,0.34
22.493467807769775,0.71,2.45,-3.9,4.66
22.51294708251953,0.38,-4.39,-1.02,4.52
22.51513695716858,1.85,0.35,0.44,1.93
22.522979974746704,1.36,1.8,-0.19,2.26
22.533463954925537,-0.64,-0.04,-1.89,1.99
22.542870044708252,-1.83,4.16,-8.2,9.37
22.562224864959717,1.0,-2.1,-1.07,2.56
22.564363956451416,3.4,-3.92,5.6,7.63
22.573214054107666,2.61,0.12,7.87,8.29
22.583175897598267,-1.62,4.48,3.46,5.88
22.592824935913086,-0.34,-2.08,0.57,2.18
22.612370014190674,1.62,1.52,-5.62,6.04
22.614296913146973,3.02,-3.41,6.09,7.6
22.622467041015625,-2.02,3.37,-3.6,5.32
22.63433289527893,-2.67,0.78,-4.27,5.09
22.64259099960327,-1.42,2.5,-4.88,5.66
22.661945819854736,3.32,-6.82,5.84,9.57
22.66409206390381,1.99,-4.48,1.89,5.25
22.672336101531982,-2.33,6.36,4.73,8.26
22.684125900268555,-3.08,1.38,-3.28,4.7
22.6923770904541,1.31,-2.32,0.58,2.72
22.711302757263184,2.44,-0.56,-6.32,6.79
22.713449001312256,0.73,-0.94,-0.45,1.27
22.72202205657959,-0.38,1.75,1.95,2.64
22.73270082473755,0.79,0.61,6.39,6.46
22.74208092689514,1.15,-2.1,3.29,4.06
22.76159691810608,0.86,0.92,-4.76,4.92
22.763712882995605,0.82,-2.15,-4.61,5.15
22.772109031677246,0.47,1.25,-3.74,3.97
22.7846040725708,-0.67,-0.41,-2.42,2.54
22.791878938674927,0.73,-3.96,6.92,8.0
22.8111629486084,1.44,-2.63,3.34,4.48
22.813270092010498,-0.19,1.27,-3.92,4.12
22.82146406173706,-0.66,4.6,-2.13,5.11
22.83175277709961,0.8,-0.02,5.14,5.2
22.84125280380249,0.09,-1.3,-0.8,1.52
22.8614559173584,-0.86,3.26,-2.73,4.33
22.86355686187744,0.18,-4.12,-3.18,5.2
22.87126588821411,1.1,3.44,3.76,5.21
22.881687879562378,0.54,-4.42,4.25,6.15
22.891056060791016,-0.85,-0.59,-0.47,1.13
22.910393953323364,-1.05,-1.89,-0.62,2.24
22.912463903427124,0.06,1.45,-0.09,1.45
22.920988082885742,-0.26,2.21,-1.48,2.67
22.931185960769653,-1.56,2.29,0.18,2.77
22.941018104553223,-2.05,0.67,-1.04,2.39
22.96056890487671,0.68,-1.76,3.99,4.41
22.962642908096313,0.89,2.7,-4.41,5.24
22.970850944519043,-1.33,0.95,-2.78,3.22
22.980666875839233,-2.89,6.17,-8.7,11.05
22.991100788116455,-1.81,-2.98,-0.43,3.51
23.010881900787354,2.43,-2.63,3.34,4.89
23.012955904006958,1.97,1.36,0.57,2.46
23.02044987678528,-1.71,2.0,6.97,7.45
23.03039789199829,-1.83,-1.22,1.93,2.92
23.040519952774048,2.22,-4.53,3.23,5.99
23.059850931167603,0.0,3.11,-8.62,9.16
23.061914920806885,-2.07,4.19,2.49,5.29
23.070273876190186,-1.29,-1.35,-3.34,3.82
23.080281972885132,1.87,-1.47,-1.16,2.64
23.090253829956055,-0.18,1.55,-0.35,1.59
23.109665870666504,-2.52,4.24,2.03,5.33
23.1117000579834,-0.37,-2.34,3.23,4.0
23.12022304534912,3.02,-3.72,4.03,6.26
23.130016803741455,0.12,-0.5,-6.31,6.33
23.1400089263916,-2.48,2.38,-1.03,3.58
23.159650802612305,0.38,-2.65,-3.33,4.27
23.16163682937622,2.56,-3.56,6.82,8.1
23.16978693008423,0.16,-1.47,3.71,3.99
23.179763793945312,-2.09,3.77,-5.37,6.88
23.18955898284912,-0.98,1.06,-7.24,7.38
23.208778858184814,2.38,-5.68,2.98,6.84
23.210839986801147,1.85,-0.89,-0.8,2.2
23.21936297416687,-1.38,1.01,0.03,1.71
23.229829788208008,-1.75,-3.39,4.24,5.7
23.239590883255005,1.14,-1.37,1.07,2.07
23.25954294204712,0.41,-2.69,-0.98,2.89
23.261542797088623,-0.42,3.73,-1.48,4.03
23.26911187171936,2.26,-1.99,-0.06,3.01
23.27908992767334,3.54,1.49,-4.15,5.65
23.289309978485107,-0.27,1.37,-0.24,1.41
23.308518886566162,-0.68,-1.08,4.56,4.73
23.310545921325684,2.32,-2.52,3.66,5.01
23.319008827209473,0.6,6.27,-0.46,6.31
23.328940868377686,-1.05,-1.3,-1.36,2.15
23.339385986328125,1.21,-1.58,-7.34,7.6
23.359564781188965,2.92,0.24,-3.55,4.6
23.36164093017578,0.8,0.39,3.11,3.23
23.368692874908447,-1.33,6.42,1.1,6.64
23.37860679626465,-1.65,0.53,-4.71,5.01
23.388710021972656,1.27,-1.95,2.93,3.74
23.40800380706787,4.57,-3.52,-1.01,5.85
23.410001754760742,2.37,1.27,2.02,3.36
23.41849708557129,-2.79,2.05,2.23,4.11
23.428502082824707,-0.87,-1.69,5.69,5.99
23.438262939453125,3.08,0.25,-6.92,7.57
23.457796096801758,2.76,-5.43,-0.6,6.12
23.459908962249756,-0.97,3.8,-1.62,4.24
23.468614101409912,-0.29,-5.47,4.53,7.1
23.478193759918213,0.22,1.06,-0.51,1.19
23.48859977722168,-0.72,2.09,1.3,2.56
23.5083270072937,-1.06,-2.68,-6.7,7.29
23.510504961013794,0.51,0.77,-1.68,1.91
23.517929077148438,0.71,-1.54,4.05,4.39
23.52803087234497,-0.26,-1.27,7.65,7.75
23.537986755371094,-2.38,3.62,0.59,4.37
23.5571129322052,-2.33,4.6,-4.48,6.83
23.559305906295776,1.18,-1.2,-1.5,2.25
23.56783103942871,3.18,-2.76,0.11,4.21
23.57765483856201,-0.24,4.07,0.84,4.16
23.587862968444824,-3.31,1.52,-2.05,4.17
23.607837915420532,-1.01,-0.53,1.65,2.0
23.610017776489258,2.17,1.44,-3.12,4.06
23.617660999298096,0.02,-2.61,1.27,2.9
23.627741813659668,-1.51,-1.26,-0.43,2.01
23.637295961380005,-0.63,-0.03,-0.28,0.69
23.656386852264404,1.35,-1.17,1.24,2.17
23.658622980117798,0.64,0.16,2.44,2.52
23.667731761932373,-0.93,-1.23,0.26,1.56
23.677184104919434,-0.37,1.62,0.34,1.69
23.68761897087097,0.45,-0.79,-4.14,4.23
23.707289934158325,0.22,-0.8,-4.77,4.84
23.70942997932434,0.13,-1.89,-3.05,3.59
23.71691393852234,0.14,-2.91,-1.34,3.2
23.726947784423828,-0.25,1.25,4.55,4.72
23.737202882766724,0.02,-3.9,5.38,6.64
23.756799936294556,0.68,5.63,3.3,6.56
23.758862018585205,0.43,0.47,-2.88,2.94
23.76678991317749,0.59,1.59,-5.82,6.06
23.776548862457275,0.11,0.13,-5.08,5.08
23.78700590133667,-0.92,0.63,2.16,2.43
23.8067729473114,-2.18,1.05,3.8,4.5
23.80876088142395,-0.31,1.78,3.99,4.38
23.819918870925903,3.57,-2.57,-4.8,6.51
23.826185941696167,1.36,-1.39,-3.21,3.75
23.836681842803955,-6.1,1.42,6.15,8.77
23.85634994506836,-7.45,4.48,3.53,9.38
23.85834288597107,1.48,-3.07,-1.74,3.82
23.869640827178955,6.84,-3.18,-2.45,7.93
23.87581205368042,-0.25,0.19,-2.34,2.36
23.886784076690674,-5.99,1.36,6.06,8.62
23.906301975250244,-0.31,1.47,-2.55,2.95
23.90825080871582,4.3,3.93,-7.19,9.25
23.91942596435547,0.62,-2.87,-0.69,3.01
23.925943851470947,-2.89,-0.24,2.43,3.78
23.936007022857666,0.4,1.6,-0.77,1.82
23.955734968185425,1.86,-0.44,-1.71,2.56
23.957714080810547,-1.21,-2.7,1.35,3.25
23.970448970794678,-2.21,-4.01,6.46,7.91
23.97526502609253,0.53,1.88,-4.03,4.47
23.98595380783081,1.34,1.07,-2.52,3.04
24.00525188446045,-1.18,0.31,0.21,1.23
24.007203102111816,-2.01,0.55,1.27,2.44
24.02021098136902,-0.84,-1.75,-4.03,4.47
24.025108814239502,-0.39,1.67,-3.25,3.67
24.035897970199585,-0.38,-2.72,3.9,4.76
24.05540895462036,1.08,-3.7,2.52,4.6
24.057353973388672,1.03,-2.05,1.38,2.67
24.065803050994873,-0.27,-1.28,-0.76,1.51
24.074740886688232,-1.07,2.3,1.38,2.88
24.085476875305176,1.02,-1.58,-4.12,4.52
24.10468888282776,2.56,-0.2,-1.15,2.81
24.106680870056152,1.29,-0.89,0.12,1.57
24.114738941192627,-0.74,-1.29,3.31,3.62
24.1248459815979,-0.4,0.08,0.51,0.65
24.13510799407959,1.84,1.54,-1.37,2.76
24.154822826385498,2.18,-0.74,1.44,2.71
24.156848907470703,-0.57,0.25,-1.17,1.32
24.164793014526367,-1.42,0.42,-0.72,1.64
24.17429780960083,0.43,2.47,-3.23,4.08
24.185111045837402,2.59,-1.29,3.68,4.68
24.204813957214355,2.47,0.62,0.02,2.54
24.206850051879883,0.33,2.14,-0.21,2.17
24.214163780212402,-0.04,0.87,-4.05,4.14
24.22424602508545,1.9,2.68,-2.77,4.29
24.234335899353027,3.4,-0.75,0.95,3.6
24.253639936447144,1.57,-0.06,-1.93,2.48
24.25568675994873,-0.38,-2.16,2.82,3.57
24.26389980316162,-0.93,2.16,-4.11,4.73
24.274274826049805,1.97,-2.82,2.5,4.25
24.284340858459473,1.74,0.11,-2.0,2.65
24.304069995880127,-0.72,-0.23,1.1,1.33
24.306090831756592,-2.35,1.46,-4.34,5.14
24.313889026641846,0.87,-2.72,1.75,3.34
24.323875904083252,3.17,-0.55,5.83,6.65
24.33399200439453,1.29,-2.68,-0.02,2.97
24.353652000427246,-1.47,1.0,2.48,3.05
24.355710983276367,-0.11,-1.74,-2.15,2.76
24.363443851470947,1.24,-2.34,0.97,2.82
24.373295783996582,-0.7,2.98,-1.36,3.34
24.384153842926025,-1.38,0.43,-0.82,1.66
24.40360689163208,1.64,0.76,-3.15,3.63
24.405643939971924,3.65,0.52,0.46,3.71
24.413044929504395,1.45,-2.91,-1.47,3.56
24.423367023468018,-0.54,1.11,1.63,2.04
24.433605909347534,1.17,-2.02,3.41,4.13
24.453592777252197,1.2,-0.05,0.05,1.2
24.455588817596436,-0.4,0.87,1.21,1.54
24.4628689289093,0.62,-2.1,1.98,2.95
24.472941875457764,1.16,0.47,-3.16,3.39
24.48390793800354,0.42,-1.84,-0.3,1.91
24.50334596633911,0.02,-0.07,3.92,3.92
24.505327939987183,1.15,-0.48,3.44,3.65
24.512773036956787,0.5,2.95,1.78,3.48
24.522851943969727,-0.39,0.04,-7.72,7.72
24.53373908996582,-0.05,2.53,-5.12,5.71
24.553255081176758,0.35,1.31,-5.24,5.41
24.555280923843384,-1.67,1.17,3.34,3.91
24.562277793884277,-1.97,0.62,1.8,2.73
24.572314977645874,-0.32,4.67,2.42,5.26
24.58288598060608,-0.22,2.24,-4.64,5.15
24.60225486755371,-2.65,1.78,0.99,3.34
24.60426902770996,-2.87,1.14,-5.9,6.65
24.611895084381104,-2.98,2.93,-3.47,5.43
24.622689962387085,-3.18,-1.54,-0.91,3.64
24.632569789886475,-1.81,-1.0,8.51,8.75
24.65200901031494,0.8,0.01,3.81,3.89
24.654029846191406,-0.96,0.7,1.84,2.19
24.661791801452637,-3.95,1.97,-3.34,5.53
24.672001838684082,-2.6,-3.02,-2.88,4.91
24.681888103485107,2.14,-1.95,3.78,4.76
24.701416969299316,3.25,-2.66,1.6,4.49
24.70343589782715,-0.13,-0.08,3.81,3.81
24.711419105529785,-2.71,2.73,-1.27,4.05
24.721827030181885,-2.49,-1.06,2.27,3.53
24.731960773468018,0.41,-4.16,1.05,4.31
24.751452922821045,0.92,4.51,-2.55,5.26
24.75347590446472,0.37,-0.76,-6.52,6.57
24.761149883270264,-0.74,1.07,1.04,1.66
24.771333932876587,-0.94,-4.85,-4.1,6.41
24.781507968902588,-1.57,-0.45,3.9,4.22
24.80134677886963,1.09,-1.76,-0.01,2.07
24.803361892700195,1.49,0.19,0.16,1.51
24.810824871063232,0.55,1.3,-3.19,3.48
24.821773052215576,-0.92,-0.86,-1.89,2.27
24.83088994026184,-0.43,-1.24,-1.27,1.82
24.850396871566772,-0.65,2.19,-0.07,2.28
24.85238790512085,0.34,-4.57,3.09,5.52
24.861005783081055,1.5,-2.46,1.57,3.28
24.871010780334473,0.24,1.01,-1.53,1.84
24.88118076324463,-0.03,-1.62,3.37,3.73
24.90083885192871,2.12,-5.01,5.84,7.98
24.902851104736328,0.8,4.69,0.22,4.76
24.910311937332153,-1.54,0.65,2.71,3.18
24.920893907546997,0.58,-0.68,-3.63,3.73
24.930541038513184,2.06,-0.51,-3.78,4.33
24.949376106262207,-1.47,2.16,-6.42,6.93
24.95143985748291,-1.88,0.78,1.86,2.75
24.960115909576416,1.2,-0.81,-4.35,4.58
24.970704078674316,2.92,-1.57,1.61,3.68
24.98037099838257,-1.32,4.02,-2.3,4.81
24.999958038330078,-0.26,-2.08,3.87,4.4
25.002150058746338,3.07,1.11,-0.45,3.29
25.009885787963867,3.18,-4.87,3.17,6.62
25.020447969436646,-1.39,1.08,-2.31,2.9
25.02982497215271,-2.05,6.12,-3.26,7.23
25.04836082458496,0.37,-1.18,-5.92,6.04
25.050579071044922,2.67,3.68,-5.21,6.91
25.060073852539062,3.81,-7.33,7.29,11.01
25.07006597518921,3.5,1.02,1.52,3.94
25.079795837402344,-0.63,8.97,-2.76,9.4
25.09938097000122,-2.44,-0.86,-3.39,4.26
25.101578950881958,2.38,-3.85,0.2,4.53
25.109260082244873,4.82,-1.54,2.43,5.61
25.12018585205078,-0.75,-3.25,1.91,3.84
25.129340887069702,-5.42,5.49,-3.74,8.57
25.147881984710693,-3.62,-1.43,3.45,5.2
25.150341033935547,1.77,-5.28,2.09,5.94
25.159226894378662,0.64,-3.47,-1.28,3.75
25.169030904769897,-3.93,5.23,1.49,6.7
25.17944097518921,-2.31,-0.08,-3.54,4.22
25.199048042297363,2.71,-7.97,2.1,8.67
25.20105504989624,2.44,-0.46,1.01,2.68
25.208967924118042,-0.25,-2.4,9.68,9.97
25.21921682357788,-1.83,4.44,-0.76,4.86
25.2292799949646,0.47,2.48,-2.64,3.65
25.24840998649597,1.19,-3.91,-11.57,12.27
25.250586986541748,0.94,-0.83,0.61,1.39
25.25862193107605,1.04,-0.22,2.29,2.52
25.269155979156494,1.75,4.12,-0.09,4.47
25.27845788002014,-0.47,0.33,-0.74,0.93
25.29758596420288,-0.09,-3.91,0.58,3.95
25.299787998199463,1.21,-0.93,-3.62,3.92
25.308286905288696,0.92,-1.41,-0.51,1.75
25.318606853485107,-0.26,8.56,-0.98,8.61
25.328531980514526,-0.65,1.77,-5.25,5.57
25.347761869430542,-0.28,-0.44,0.03,0.52
25.349918842315674,0.95,-0.57,-4.98,5.1
25.358334064483643,1.84,-0.03,-4.35,4.72
25.368026971817017,1.2,-2.92,4.72,5.67
25.378357887268066,0.84,-2.69,6.68,7.25
25.397616863250732,1.04,-1.31,1.69,2.37
25.3997220993042,0.15,-0.71,-3.45,3.52
25.407811880111694,0.3,1.21,-2.22,2.54
25.418251037597656,0.54,-4.09,1.89,4.53
25.428039073944092,-0.9,1.02,1.17,1.79
25.447400093078613,-1.65,2.19,4.96,5.66
25.449529886245728,1.18,-2.03,1.21,2.64
25.457597970962524,1.94,3.12,-2.29,4.32
25.46829390525818,-1.57,-1.99,1.25,2.82
25.47746706008911,-6.43,5.65,5.47,10.15
25.496651887893677,-2.36,-2.19,2.84,4.29
25.498804092407227,3.6,2.11,-0.83,4.25
25.507362842559814,2.4,-2.28,-1.85,3.79
25.517903804779053,-2.64,2.26,-2.65,4.37
25.52739381790161,-3.29,5.49,-3.62,7.35
25.546699047088623,1.61,-4.23,-0.96,4.62
25.548841953277588,2.51,1.49,-4.43,5.3
25.557448863983154,-2.06,0.29,1.85,2.78
25.568763971328735,-3.5,2.44,-1.73,4.6
25.57748508453369,1.09,-1.55,4.33,4.72
25.596023082733154,2.19,-4.05,-1.35,4.79
25.59813094139099,-2.43,1.25,2.64,3.79
25.60686683654785,-4.71,0.13,0.23,4.71
25.61727476119995,-0.63,2.92,-4.13,5.09
25.627020835876465,1.2,2.76,0.19,3.01
25.646841049194336,-1.36,0.75,0.21,1.56
25.648964881896973,-2.45,0.37,-2.01,3.19
25.656672954559326,-1.43,0.21,-4.89,5.09
25.66870403289795,0.41,1.14,-0.73,1.41
25.676392078399658,0.16,-5.06,8.4,9.8
25.695569038391113,-1.1,-1.95,8.41,8.7
25.697700023651123,-2.63,4.18,0.61,4.97
25.70685887336731,-0.86,-0.66,-4.3,4.43
25.717315912246704,2.67,-2.43,-1.94,4.09
25.726036071777344,2.2,-2.67,-0.51,3.49
25.74518895149231,-1.36,1.35,3.35,3.85
25.7474308013916,-1.18,0.38,5.73,5.86
25.75611400604248,2.94,-7.78,1.08,8.38
25.766633987426758,1.71,1.8,-7.44,7.84
25.77616596221924,-1.31,-0.05,-10.95,11.02
25.79573106765747,0.97,-7.39,2.4,7.83
25.798532009124756,2.73,-1.94,3.96,5.18
25.80584478378296,0.24,1.14,-1.11,1.6
25.81612992286682,0.72,1.71,-2.95,3.48
25.825772762298584,4.6,-3.25,-6.25,8.41
25.844964027404785,4.89,4.35,-2.69,7.07
25.847036838531494,0.87,2.38,-3.0,3.92
25.855735778808594,-0.22,5.7,2.08,6.07
25.865505933761597,1.5,-3.8,0.26,4.09
25.875712871551514,2.14,0.3,-4.18,4.7
25.895168781280518,2.6,-1.0,-1.21,3.03
25.897165775299072,3.53,-0.79,0.85,3.71
25.905571937561035,3.0,-2.87,6.61,7.8
25.915401935577393,-2.43,-0.34,-4.26,4.91
25.925688982009888,-2.89,1.39,-1.25,3.44
25.945549964904785,1.0,-3.6,9.18,9.91
25.947582960128784,0.92,-4.45,3.26,5.59
25.955126762390137,-3.03,3.4,6.14,7.64
25.965065956115723,-0.88,-2.65,-3.98,4.86
25.975192070007324,3.35,-1.04,-4.94,6.05
25.994847774505615,-0.2,4.67,-5.5,7.21
25.996883869171143,-4.94,1.87,3.99,6.61
26.004700899124146,-1.58,-1.56,10.44,10.67
26.015161991119385,3.15,-3.59,7.77,9.12
26.024724006652832,0.61,1.42,-4.05,4.33
26.043790817260742,-0.96,2.84,-4.91,5.75
26.045880794525146,2.07,-8.14,4.77,9.65
26.054913997650146,1.47,2.26,-2.36,3.58
26.06426692008972,-2.32,5.68,-0.85,6.19
26.074797868728638,-2.47,5.2,-6.68,8.81
26.094552040100098,1.69,0.44,-6.94,7.15
26.096574783325195,3.84,-3.04,-1.2,5.04
26.10421085357666,2.59,1.24,0.95,3.02
26.11455488204956,-1.0,3.41,3.05,4.68
26.124387979507446,-1.97,0.66,6.92,7.22
26.144147872924805,0.87,1.26,-6.33,6.51
26.146162033081055,3.47,-7.41,-2.23,8.48
26.154088973999023,0.51,-1.08,-4.98,5.12
26.164281845092773,-3.2,6.04,9.29,11.53
26.173885822296143,-0.8,-3.78,-0.18,3.86
26.193238973617554,3.05,-0.8,-0.04,3.15
26.195271015167236,0.52,0.6,-6.22,6.27
26.203813076019287,-2.81,-1.43,4.62,5.59
26.213825941085815,-0.56,-4.74,0.02,4.77
26.223790884017944,-0.18,6.03,-1.98,6.34
26.24340009689331,-3.23,-2.98,5.98,7.42
26.24561309814453,-2.31,0.94,-1.27,2.79
26.25367307662964,0.99,6.62,0.34,6.7
26.263466835021973,-0.72,3.95,-3.55,5.35
26.274160861968994,-3.7,-1.28,-3.34,5.14
26.29376792907715,-2.16,3.73,-5.7,7.14
26.295942783355713,0.31,-2.71,2.64,3.79
26.303322792053223,1.13,-3.07,7.03,7.75
26.313786029815674,1.19,0.64,4.77,4.95
26.323301792144775,-0.53,-1.84,-3.6,4.07
26.342287063598633,-1.33,-1.88,-0.73,2.41
26.34435486793518,-1.43,-0.29,-3.21,3.52
26.353455066680908,-0.44,2.38,4.32,4.95
26.36309003829956,-0.42,1.42,1.8,2.33
26.37333393096924,0.22,-1.41,0.95,1.71
26.392936944961548,-2.11,2.33,-10.21,10.68
26.395099878311157,-4.35,4.13,-4.68,7.6
26.40334701538086,-2.25,-3.4,-0.66,4.13
26.413094997406006,1.71,-2.51,5.53,6.3
26.423038959503174,1.1,-0.75,2.55,2.87
26.44208288192749,-0.54,1.02,2.04,2.34
26.444206953048706,-1.13,1.23,-5.65,5.89
26.452892780303955,-0.35,0.08,4.74,4.75
26.462751865386963,-0.14,-1.74,-2.84,3.33
26.47298789024353,-0.7,-2.65,-0.75,2.84
26.4924898147583,-3.12,2.8,-1.38,4.41
26.494688987731934,-1.93,-3.22,5.67,6.8
26.50258493423462,0.61,-2.56,-0.95,2.79
26.51284885406494,-0.44,-0.76,6.4,6.45
26.522474765777588,-3.51,-0.57,-0.11,3.55
26.541838884353638,-0.34,-1.47,6.81,6.97
26.543997764587402,2.8,0.16,-3.76,4.69
26.55245876312256,1.52,-0.28,-0.76,1.72
26.561917781829834,-1.54,0.84,-2.93,3.41
26.572504997253418,-1.13,3.0,-0.32,3.22
26.592283964157104,-0.01,-3.53,-8.18,8.9
26.594371795654297,-0.32,1.29,-1.89,2.31
26.60202980041504,-0.11,-1.54,0.87,1.77
26.611844062805176,2.45,2.83,7.42,8.31
26.622413873672485,3.33,-2.21,10.3,11.04
26.641769886016846,-0.88,3.7,-8.65,9.44
26.643802881240845,-2.36,0.21,-0.7,2.47
26.65177297592163,1.96,-2.04,-11.14,11.49
26.661932945251465,5.07,4.81,-0.56,7.01
26.67188310623169,0.66,0.33,-5.04,5.09
26.69142484664917,-1.88,-3.78,-2.01,4.67
26.69361686706543,-0.29,2.06,-5.54,5.91
26.701361894607544,4.11,-8.99,7.1,12.17
26.711387872695923,4.03,1.92,-0.66,4.51
26.721354961395264,3.0,-6.42,7.29,10.16
26.74100399017334,-1.36,6.38,-3.76,7.52
26.743047952651978,1.57,-6.76,4.62,8.33
26.754103899002075,3.27,0.28,-5.93,6.77
26.76063299179077,1.61,7.5,-0.46,7.68
26.771678924560547,-2.86,-4.22,2.02,5.48
26.791507959365845,0.03,-4.75,9.92,10.99
26.793456077575684,3.68,-5.72,6.87,9.66
26.804845809936523,-0.85,7.18,-10.37,12.64
26.81040096282959,-1.44,-2.75,9.65,10.13
26.82082176208496,-0.61,4.15,-10.86,11.64
26.840270042419434,0.04,3.71,-6.46,7.44
26.842248916625977,-1.49,-10.88,-8.17,13.68
26.85107183456421,-0.9,3.99,0.28,4.09
26.86068296432495,0.97,1.73,2.56,3.23
26.870769023895264,0.06,-1.71,7.37,7.56
26.89040994644165,-2.15,3.89,5.79,7.29
26.892396926879883,-0.6,1.78,0.06,1.87
26.90129280090332,-0.05,0.39,-2.79,2.81
26.910237789154053,-0.78,2.57,-7.08,7.57
26.920511960983276,-0.69,-1.73,-1.25,2.24
26.939859867095947,0.4,-2.43,-6.92,7.34
26.94190788269043,1.02,-3.37,10.73,11.29
26.95478391647339,1.57,-2.7,2.22,3.83
26.959560871124268,0.35,5.96,0.86,6.03
26.97012710571289,-0.94,3.58,-4.31,5.68
26.989386081695557,0.57,-3.51,2.48,4.33
26.99134397506714,2.57,-2.98,-1.33,4.15
27.004776000976562,1.35,3.6,4.79,6.14
27.009593963623047,-2.62,0.91,-3.09,4.15
27.01998281478882,-3.6,-0.8,8.51,9.27
27.03924298286438,-1.01,-0.33,-3.37,3.53
27.041188955307007,1.58,2.45,-6.99,7.57
27.049360752105713,-0.14,3.48,-10.88,11.42
27.059298992156982,-3.93,-2.75,-6.76,8.28
27.06975793838501,-2.37,-11.23,11.62,16.33
27.08961009979248,4.47,-4.39,14.01,15.34
27.09157705307007,4.26,2.36,1.63,5.13
27.09900999069214,-5.36,5.53,0.33,7.7
27.10890483856201,-5.16,-1.49,4.23,6.83
27.119712829589844,2.37,-0.76,-15.39,15.58
27.139214038848877,4.62,4.45,-10.72,12.49
27.141247749328613,-3.43,4.64,-2.34,6.22
27.148828983306885,-3.52,1.1,3.57,5.13
27.159242868423462,1.33,-4.02,-1.92,4.64
27.16916799545288,3.12,-0.36,1.76,3.6
27.1888108253479,-0.76,-2.33,-3.17,4.0
27.19085192680359,-1.84,1.8,5.46,6.03
27.198455810546875,0.69,0.33,0.01,0.76
27.208677768707275,1.49,1.32,-1.4,2.43
27.21888303756714,-2.03,0.61,-5.83,6.2
27.23852300643921,-2.57,-3.39,-0.9,4.34
27.240527868270874,-0.18,4.02,1.03,4.15
27.248558044433594,1.64,-5.39,5.18,7.65
27.25836181640625,0.73,4.91,-0.9,5.04
27.268857955932617,0.43,-0.61,1.79,1.93
27.288477897644043,0.4,0.46,-2.74,2.8
27.290492057800293,0.92,-3.31,0.48,3.46
27.29790687561035,-2.02,-1.02,-1.23,2.57
27.307868003845215,-3.47,0.35,-0.36,3.5
27.318474769592285,-1.09,-0.24,1.32,1.72
27.3382248878479,1.77,-3.75,-0.56,4.18
27.340205907821655,0.46,3.93,-6.68,7.76
27.347702026367188,-1.01,0.75,-5.09,5.24
27.358105897903442,0.21,-6.72,8.23,10.62
27.368256092071533,1.07,-1.08,9.04,9.16
27.38762593269348,-1.1,1.96,5.03,5.5
27.389627933502197,-2.66,1.33,7.22,7.8
27.39769983291626,0.03,2.58,-2.68,3.72
27.40770387649536,1.76,-0.77,-11.27,11.43
27.41803789138794,0.52,-2.0,-12.07,12.24
27.437790870666504,-0.28,3.88,11.7,12.32
27.43977189064026,-0.17,-1.6,-0.17,1.61
27.447075843811035,-0.97,4.59,-0.74,4.74
27.457454919815063,-3.18,0.7,-1.93,3.78
27.46778893470764,1.2,-7.91,7.1,10.69
27.487210750579834,3.11,0.89,-9.87,10.38
27.48917293548584,-2.35,5.35,-0.24,5.84
27.496758937835693,-3.46,-2.35,4.68,6.27
27.507308959960938,2.47,-6.0,3.82,7.52
27.5170259475708,0.58,2.13,-3.89,4.47
27.537152767181396,-3.42,4.52,-4.61,7.3
27.53919506072998,-1.54,-0.99,-2.61,3.18
27.546483993530273,3.2,-6.11,0.19,6.89
27.556961059570312,1.95,-3.23,5.8,6.91
27.566710948944092,-2.66,4.41,-0.47,5.17
27.586585998535156,-3.47,8.04,-5.51,10.34
27.588587760925293,2.2,-6.79,-0.6,7.16
27.596511840820312,7.06,-6.7,-2.03,9.94
27.606794834136963,2.29,4.47,8.02,9.46
27.616817951202393,-9.52,12.48,-0.16,15.69
27.63639783859253,-7.22,6.18,2.26,9.76
27.63844394683838,7.15,-12.44,-3.63,14.8
27.646063804626465,8.72,0.05,-13.35,15.94
27.656616926193237,-1.93,6.08,1.36,6.52
27.6664879322052,-5.32,-1.74,8.91,10.52
27.686503887176514,-1.45,0.4,3.67,3.96
27.688525915145874,3.45,-3.03,2.97,5.46
27.695822954177856,2.03,-3.2,3.25,4.99
27.70602798461914,-1.16,0.75,-6.57,6.71
27.71593189239502,-2.08,1.21,8.69,9.01
27.73571491241455,0.44,-2.69,-3.7,4.59
27.737735986709595,0.93,-1.35,-7.17,7.35
27.745826959609985,-1.29,-1.02,-6.06,6.27
27.75593090057373,-2.06,2.14,-0.53,3.01
27.766475915908813,2.34,-7.92,3.76,9.07
27.787271976470947,2.82,2.8,-2.53,4.71
27.789301872253418,-0.37,0.26,9.21,9.22
27.795158863067627,-1.01,3.89,5.35,6.69
27.80575180053711,4.04,0.2,9.63,10.44
27.815349102020264,3.62,0.72,-5.12,6.31
27.83430576324463,-0.28,1.46,-5.57,5.76
27.83643388748169,-2.42,-1.1,-9.39,9.75
27.845026969909668,1.17,5.17,0.39,5.31
27.855812072753906,2.72,-4.33,-2.03,5.5
27.865222930908203,1.71,-1.29,9.9,10.12
27.884482860565186,-0.56,0.58,-1.71,1.89
27.8867130279541,0.66,4.96,-1.94,5.36
27.894675970077515,1.52,-8.22,0.74,8.39
27.90510082244873,0.39,4.69,-0.65,4.75
27.914809942245483,-4.22,3.48,-0.4,5.48
27.933897972106934,-2.48,-6.39,-1.35,6.98
27.936068058013916,1.11,11.5,-2.89,11.9
27.94450092315674,1.77,-6.45,-0.34,6.69
27.95479989051819,-1.02,1.24,-0.5,1.68
27.96492576599121,-0.3,1.13,1.26,1.71
27.984287977218628,1.07,-6.23,0.38,6.33
27.98644495010376,-0.58,-1.31,8.12,8.24
27.994074821472168,-1.33,-1.12,2.5,3.04
28.00470209121704,-1.56,-3.26,-2.85,4.6
28.014153957366943,-1.3,0.87,-4.74,4.99
28.03339195251465,-2.02,3.31,-3.69,5.35
28.035606861114502,-1.1,4.54,-8.48,9.68
28.044006824493408,-2.52,-4.01,1.57,4.98
28.054473876953125,-2.26,2.65,3.75,5.11
28.063986778259277,0.96,0.66,1.1,1.6
28.083669900894165,1.02,-4.78,4.68,6.76
28.085713863372803,-2.01,0.82,-0.6,2.25
28.093876838684082,-2.0,-1.41,3.14,3.98
28.104209899902344,1.34,-4.21,5.36,6.94
28.11360788345337,0.76,5.0,1.83,5.37
28.132411003112793,-1.37,2.67,-3.26,4.43
28.134546756744385,-0.44,-0.23,-4.29,4.31
28.143452882766724,3.49,-0.08,-2.05,4.04
28.153363943099976,2.68,0.33,-1.98,3.34
28.163508892059326,-2.35,4.43,-1.38,5.2
28.183227062225342,-1.82,-0.25,3.32,3.79
28.18578791618347,2.65,-6.11,3.22,7.39
28.193091869354248,1.63,4.08,-1.56,4.66
28.203495025634766,-4.33,3.84,-7.21,9.24
28.213397979736328,-1.59,-3.2,2.79,4.53
28.23269510269165,2.96,-4.14,-2.79,5.8
28.235169887542725,0.13,3.72,-2.68,4.58
28.243024826049805,-4.16,-1.87,0.72,4.61
28.253024101257324,-2.23,-4.01,9.2,10.28
28.263253927230835,0.43,3.04,-10.65,11.08
28.28282403945923,-0.14,-6.8,9.38,11.58
28.28502607345581,0.3,-2.28,-6.93,7.3
28.292648792266846,0.73,5.34,7.29,9.06
28.30260992050171,-0.13,-0.98,-6.65,6.72
28.31303882598877,-1.98,0.21,-2.52,3.21
28.33254384994507,0.19,-4.4,-3.67,5.73
28.334630966186523,-0.56,2.79,-0.67,2.92
28.34243679046631,2.51,-4.38,5.41,7.39
28.35256576538086,0.12,6.78,-3.73,7.73
28.36253309249878,0.33,-4.67,9.85,10.9
28.382061004638672,-1.76,-4.06,2.23,4.95
28.384116888046265,0.94,2.28,-6.4,6.85
28.392162799835205,1.05,1.63,-6.02,6.32
28.402574062347412,1.98,-1.61,-3.96,4.71
28.412199020385742,-1.6,-0.34,-1.51,2.22
28.431741952896118,0.6,-7.02,10.2,12.39
28.43391180038452,-0.43,6.17,0.31,6.19
28.442256927490234,-1.37,7.79,-2.36,8.25
28.4537410736084,0.16,-3.84,5.63,6.81
28.462008953094482,3.49,-2.31,-7.11,8.25
28.481005907058716,1.15,0.91,-3.93,4.19
28.483130931854248,-1.46,-1.26,-2.49,3.14
28.491602897644043,0.62,0.72,7.7,7.75
28.503451824188232,1.24,1.2,-2.11,2.72
28.511656761169434,0.22,-6.33,4.18,7.58
28.531676769256592,0.03,4.49,-8.0,9.17
28.533785820007324,2.39,9.06,1.11,9.43
28.54147696495056,3.8,-7.53,-1.86,8.63
28.553623914718628,2.23,1.8,1.99,3.48
28.56146478652954,-3.58,-2.55,-4.57,6.34
28.580997943878174,-2.39,3.51,4.33,6.06
28.583093881607056,3.65,-6.25,-4.09,8.31
28.59113597869873,5.08,2.82,4.49,7.34
28.603380918502808,-2.07,-0.38,-2.12,2.98
28.610901832580566,-5.56,-2.76,0.37,6.21
28.630568981170654,0.19,6.23,5.09,8.04
28.63267493247986,6.45,-12.6,2.95,14.45
28.641201972961426,2.43,4.6,-8.36,9.84
28.651120901107788,-3.98,7.03,3.02,8.62
28.66118597984314,-0.01,-16.94,6.37,18.09
28.680531978607178,2.45,12.22,-7.45,14.52
28.682663917541504,-0.6,5.55,-1.12,5.69
28.690608024597168,-3.56,-0.28,-2.14,4.16
28.70070195198059,2.54,0.99,0.87,2.86
28.710839986801147,4.66,-6.12,1.87,7.91
28.7302827835083,-0.27,2.16,-4.58,5.07
28.732399940490723,-2.84,-1.18,6.65,7.32
28.740522861480713,2.28,-5.21,2.45,6.19
28.7511887550354,2.8,2.4,-0.51,3.72
28.760626792907715,0.06,-1.29,2.92,3.19
28.780333042144775,-0.83,1.75,-0.25,1.95
28.782413005828857,0.4,0.68,-0.22,0.81
28.790395975112915,-0.55,0.18,0.34,0.67
28.80031991004944,-1.54,-0.39,-6.76,6.94
28.810252904891968,-0.53,2.08,-6.48,6.82
28.82982087135315,2.12,-7.07,2.45,7.77
28.83182191848755,3.21,-7.48,9.67,12.63
28.839879989624023,-1.83,11.58,-1.24,11.78
28.84996795654297,-4.67,-3.03,0.56,5.59
28.859745025634766,-2.57,2.99,-1.16,4.1
28.879240036010742,1.67,3.07,-1.7,3.88
28.881239891052246,0.33,-11.27,0.33,11.27
28.889615058898926,-1.64,10.42,2.27,10.78
28.90015196800232,-1.58,5.08,-3.74,6.5
28.909719944000244,-0.44,-1.09,2.16,2.45
28.929842948913574,-1.97,4.67,-15.9,16.68
28.93187689781189,-3.69,-2.37,-0.88,4.47
28.939335823059082,-1.36,-1.92,7.37,7.73
28.94918394088745,1.57,-0.93,10.27,10.43
28.959564924240112,-2.9,1.73,4.88,5.93
28.978925943374634,-5.83,2.1,3.34,7.03
28.98119306564331,-0.94,-2.24,-15.02,15.21
28.98930597305298,4.06,-4.54,5.53,8.22
28.999207973480225,-0.49,4.17,-14.04,14.65
29.009501934051514,-6.34,0.35,9.85,11.71
29.029063940048218,-3.34,0.59,-7.52,8.24
29.031100749969482,2.95,-3.31,7.75,8.92
29.038904905319214,4.0,-5.72,-1.9,7.23
29.048865795135498,-0.08,0.48,15.11,15.11
29.05870008468628,-3.34,6.02,-8.01,10.56
29.078343868255615,-0.27,0.89,2.66,2.81
29.080371856689453,1.99,3.42,-8.61,9.47
29.088550090789795,-2.29,-0.69,-8.58,8.9
29.098634958267212,-5.25,-2.14,1.26,5.8
29.10860586166382,-1.57,-0.48,4.73,5.0
29.128225803375244,3.41,-0.67,-0.64,3.53
29.13041877746582,2.5,4.63,3.07,6.09
29.138606071472168,-1.55,-5.21,-4.95,7.35
29.14830780029297,-2.31,-2.03,3.77,4.86
29.15844988822937,-1.17,2.01,-3.56,4.25
29.1782169342041,1.6,-1.9,2.39,3.44
29.180386066436768,0.12,-0.2,-9.75,9.75
29.1881160736084,-2.03,-3.06,5.23,6.39
29.198012828826904,-0.85,-0.8,2.3,2.57
29.208159923553467,2.6,-2.47,4.68,5.89
29.227681875228882,1.23,3.55,-5.03,6.27
29.229858875274658,-0.41,-9.21,1.57,9.35
29.237973928451538,-0.66,4.4,-3.79,5.84
29.248082876205444,2.65,-6.57,5.91,9.22
29.257683753967285,3.91,-9.38,-2.4,10.44
29.27714776992798,-1.57,11.34,-2.85,11.79
29.27926778793335,-2.31,-3.93,13.42,14.17
29.28816795349121,2.48,-3.54,-3.95,5.85
29.29764699935913,3.38,4.56,-8.14,9.92
29.307687759399414,-1.12,9.66,-7.93,12.54
29.327712059020996,3.21,-5.73,5.85,8.79
29.329901933670044,6.31,-8.46,0.36,10.56
29.33742094039917,-0.53,3.6,-3.49,5.04
29.34737205505371,-4.71,3.36,1.52,5.98
29.357709884643555,1.84,2.51,6.15,6.89
29.377638816833496,8.52,-7.71,6.04,12.98
29.37982702255249,1.48,8.1,-10.7,13.5
29.38716197013855,-3.96,1.78,-9.47,10.41
29.397367000579834,-1.4,3.98,1.05,4.34
29.40720295906067,4.18,-11.33,13.99,18.48
29.426694869995117,1.47,6.79,-3.14,7.62
29.428886890411377,-1.22,0.11,-0.67,1.39
29.43701696395874,0.85,-1.59,-12.17,12.3
29.446549892425537,3.12,-0.02,5.4,6.23
29.45711398124695,0.71,-5.81,5.3,7.89
29.477120876312256,-1.74,5.9,4.35,7.53
29.479248046875,-1.8,1.23,-7.01,7.34
29.486942768096924,-0.2,-3.55,5.72,6.73
29.496601104736328,3.57,-5.47,0.09,6.53
29.50706386566162,2.31,3.18,-6.12,7.27
29.52653694152832,-2.84,1.91,-5.36,6.35
29.52868390083313,-3.01,0.73,12.55,12.92
29.536427974700928,1.78,-4.25,-2.79,5.38
29.546393871307373,1.78,4.98,-0.02,5.28
29.556535959243774,-1.46,-0.43,-0.51,1.6
29.57653498649597,-2.1,3.08,2.5,4.48
29.578528881072998,-0.44,1.56,-4.98,5.23
29.58600091934204,1.93,-5.39,4.76,7.44
29.596471786499023,-0.03,3.37,-7.63,8.34
29.606133937835693,-4.06,6.44,1.11,7.69
29.626351833343506,-3.09,-0.2,-2.75,4.14
29.62832498550415,2.36,-5.66,6.38,8.84
29.636257886886597,2.89,-2.72,0.04,3.96
29.645750999450684,-2.44,4.7,-3.07,6.12
29.656099796295166,-3.29,-0.38,3.54,4.84
29.676300048828125,1.83,-5.76,-0.21,6.04
29.678505897521973,1.23,3.07,-3.06,4.5
29.688398838043213,-1.22,-4.65,4.79,6.78
29.695316791534424,0.45,1.18,-1.83,2.22
29.70579695701599,0.33,4.22,-2.27,4.8
29.725192070007324,-3.21,-5.31,2.35,6.63
29.727176904678345,-1.68,-0.12,4.2,4.52
29.741075038909912,0.82,-1.83,-7.73,7.98
29.74522089958191,1.24,0.17,6.27,6.39
29.755337953567505,-1.14,-0.47,-2.67,2.94
29.774858951568604,-2.46,5.24,0.08,5.78
29.776866912841797,-2.71,2.05,-4.41,5.56
29.78964900970459,1.1,0.16,1.36,1.75
29.79508090019226,2.17,-4.85,0.55,5.34
29.80546998977661,-0.75,5.6,0.32,5.65
29.825954914093018,-2.84,-0.55,-5.53,6.24
29.827980995178223,-0.36,3.6,0.52,3.65
29.83574676513672,0.64,-3.39,3.07,4.61
29.844772815704346,0.16,-0.73,0.41,0.85
29.855437755584717,-1.1,-2.61,1.57,3.23
29.874938011169434,-2.06,1.84,-0.56,2.81
29.876940965652466,-1.25,4.44,6.58,8.03
29.88441491127014,0.68,-8.22,-4.81,9.54
29.8942608833313,0.58,1.37,0.06,1.48
29.904719829559326,-0.79,-2.54,-6.25,6.79
29.924479007720947,-1.29,-1.13,9.36,9.51
29.926512956619263,-1.32,10.96,-6.96,13.05
29.934228897094727,-1.15,-3.14,1.97,3.88
29.944171905517578,1.63,-2.1,-5.94,6.5
29.954551935195923,2.63,0.48,-0.78,2.78
29.97441291809082,-0.61,-2.24,4.64,5.18
29.97645378112793,-3.3,3.08,7.15,8.45
29.984224796295166,-0.97,-0.87,-4.31,4.5
