time,ax,ay,az,atotal
0.012694120407104492,0.8,-0.82,1.95,2.26
0.02326202392578125,-0.55,-1.72,3.05,3.54
0.024770021438598633,-0.85,-0.63,1.02,1.46
0.03444099426269531,0.63,0.61,-0.99,1.32
0.04492902755737305,0.58,1.16,-2.93,3.2
0.054512977600097656,-0.42,0.97,-2.4,2.62
0.0663919448852539,0.21,0.22,-0.55,0.62
0.07418704032897949,1.22,-1.3,0.9,1.99
0.08451700210571289,1.19,-1.3,1.99,2.65
0.0941781997680664,0.47,-1.13,1.25,1.74
0.10443401336669922,0.5,0.23,-0.2,0.58
0.1155240535736084,1.18,0.53,-2.08,2.44
0.12411117553710938,1.43,0.9,-2.76,3.23
0.1341230869293213,0.86,0.81,-1.16,1.65
0.144287109375,0.79,-0.42,0.06,0.89
0.15378522872924805,1.01,-0.29,1.2,1.59
0.16491317749023438,0.9,-0.34,0.73,1.2
0.17372703552246094,0.45,-0.43,-0.51,0.8
0.18364191055297852,-0.11,1.9,-1.1,2.19
0.1940610408782959,0.23,1.06,-1.9,2.18
0.20408201217651367,0.96,1.17,-2.03,2.53
0.2172870635986328,1.22,-0.01,-0.61,1.36
0.22345399856567383,0.23,1.3,-0.31,1.35
0.23353290557861328,0.76,-0.17,0.26,0.82
0.24380803108215332,1.91,1.13,-3.24,3.92
0.2537200450897217,1.53,-0.53,1.52,2.22
0.26768016815185547,-1.67,2.81,1.08,3.44
0.2730560302734375,-1.6,3.87,-1.46,4.43
0.2831082344055176,2.19,-0.56,-6.24,6.63
0.2939882278442383,2.86,-0.42,-0.64,2.96
0.30370616912841797,-0.44,0.22,1.52,1.59
0.3178110122680664,-2.37,0.66,2.33,3.38
0.32311511039733887,1.43,-1.12,-0.56,1.9
0.33276796340942383,2.53,-0.29,-2.51,3.57
0.34358692169189453,-2.22,0.84,0.34,2.39
0.3531050682067871,-2.21,-0.09,0.53,2.27
0.3683741092681885,5.0,0.18,-2.35,5.52
0.3726539611816406,6.1,1.2,-3.39,7.08
0.38288402557373047,2.23,3.68,0.08,4.3
0.3928511142730713,-1.5,1.88,1.61,2.89
0.4028780460357666,-1.86,3.07,1.26,3.8
0.4158921241760254,1.09,1.2,-3.14,3.53
0.4223051071166992,4.15,-1.13,-3.85,5.77
0.4328908920288086,3.35,0.47,-1.05,3.54
0.4430680274963379,0.0,1.37,0.95,1.66
0.45268917083740234,-0.95,1.15,0.37,1.53
0.46607208251953125,1.34,0.7,-1.78,2.33
0.47194814682006836,2.22,1.05,-1.95,3.13
0.4820852279663086,-0.07,0.42,-1.46,1.52
0.492063045501709,-0.76,1.21,1.19,1.85
0.5029730796813965,1.35,1.37,0.19,1.93
0.5164461135864258,2.25,1.5,-0.79,2.81
0.5221340656280518,0.85,2.27,-1.14,2.67
0.5320940017700195,0.05,2.07,-2.03,2.89
0.5421099662780762,-0.16,1.63,-2.91,3.33
0.5519020557403564,-1.15,2.91,-2.24,3.84
0.5652871131896973,-1.27,2.12,-2.91,3.81
0.5715351104736328,0.19,1.22,-2.75,3.01
0.5817620754241943,0.09,2.05,-2.04,2.89
0.5914120674133301,-1.61,1.81,-1.72,2.97
0.601841926574707,-0.27,0.93,-1.27,1.59
0.614814043045044,3.29,-1.69,-1.81,4.11
0.6211729049682617,3.15,-1.51,-1.74,3.9
0.6314940452575684,0.07,-0.82,-0.82,1.16
0.6411781311035156,-1.08,2.17,-0.69,2.52
0.6519560813903809,0.57,-1.05,-1.25,1.72
0.6655290126800537,3.77,-1.32,0.19,3.99
0.6708149909973145,4.31,-1.51,-0.16,4.56
0.6810531616210938,1.61,2.7,-2.23,3.85
0.6908440589904785,-0.98,0.29,-2.42,2.62
0.7011630535125732,-1.88,0.65,0.07,1.99
0.7142391204833984,0.07,1.8,-0.38,1.84
0.7205860614776611,-0.28,-0.69,-1.61,1.77
0.7308950424194336,-2.71,3.56,0.67,4.52
0.7416291236877441,0.0,3.63,-3.47,5.02
0.7511470317840576,2.0,1.39,-5.68,6.18
0.7644991874694824,-2.1,5.8,-1.27,6.29
0.7702090740203857,-2.77,1.32,-1.73,3.52
0.7806692123413086,0.52,0.28,-1.87,1.96
0.7901759147644043,-1.68,3.74,-1.87,4.5
0.8009428977966309,-4.84,-1.55,1.86,5.41
0.8141522407531738,-3.24,6.07,-1.18,6.98
0.8200340270996094,-2.56,0.95,0.57,2.78
0.8301520347595215,-4.17,5.87,2.88,7.75
0.8400280475616455,-1.67,1.38,2.03,2.96
0.850822925567627,1.36,4.01,-2.79,5.07
0.865117073059082,-1.1,4.19,1.07,4.46
0.8699741363525391,-4.15,4.73,-1.84,6.55
0.8798301219940186,-3.85,2.33,0.29,4.5
0.8903579711914062,-1.44,-4.35,-3.05,5.5
0.9003350734710693,-0.85,1.64,-6.24,6.5
0.9145779609680176,-3.15,2.13,-5.53,6.71
0.9195010662078857,-3.54,1.03,-6.94,7.85
0.9295330047607422,-1.32,3.87,1.3,4.29
0.9398090839385986,0.29,9.9,-0.45,9.91
0.950045108795166,-0.91,7.86,0.34,7.91
0.964968204498291,1.31,8.1,-0.75,8.23
0.9691450595855713,4.74,1.93,-1.61,5.36
0.9796419143676758,1.92,3.17,-1.48,3.99
0.9893820285797119,-3.72,-3.97,6.7,8.63
0.9999260902404785,-4.35,1.79,6.21,7.79
1.0137300491333008,-0.71,-3.05,3.83,4.94
1.0192232131958008,4.16,-1.19,-0.05,4.32
1.028947114944458,1.92,6.51,-4.08,7.91
1.0391201972961426,-7.38,9.16,-4.15,12.47
1.0495052337646484,-8.32,9.56,1.08,12.71
1.0635600090026855,1.87,-3.36,1.29,4.05
1.0687079429626465,8.4,-0.49,-6.88,10.86
1.0790550708770752,0.53,-1.66,3.06,3.52
1.088881015777588,-4.41,3.04,4.6,7.06
1.0992441177368164,-3.16,4.39,2.13,5.81
1.1133651733398438,0.78,5.48,3.4,6.49
1.1183431148529053,4.07,-0.08,-2.89,4.99
1.128931999206543,5.78,-3.18,-4.3,7.87
1.138564109802246,2.3,-4.13,-5.29,7.09
1.1487312316894531,-3.82,-6.78,7.32,10.68
1.162123203277588,-6.36,3.46,10.09,12.41
1.1681671142578125,-7.9,11.21,-1.75,13.82
1.178213119506836,-6.65,11.82,3.49,14.0
1.1882429122924805,9.15,-8.27,-8.51,14.98
1.1986660957336426,20.6,-4.5,-13.93,25.27
1.2118849754333496,3.35,3.36,-8.99,10.16
1.2182202339172363,-17.93,7.05,11.89,22.63
1.228611946105957,-10.98,-0.81,9.64,14.63
1.2380571365356445,11.52,-7.01,4.06,14.08
1.248478889465332,15.02,-5.94,-8.08,18.06
1.2622971534729004,-6.01,1.72,-12.41,13.89
1.2674942016601562,-14.18,1.77,0.95,14.32
1.2789580821990967,4.0,-1.31,0.55,4.24
1.2876551151275635,14.61,-2.53,5.17,15.7
1.2981629371643066,-1.97,9.37,4.79,10.7
1.3107800483703613,-9.17,5.85,-1.94,11.04
1.317439079284668,7.79,-5.92,-4.43,10.74
1.3286418914794922,17.21,-5.03,-10.08,20.56
1.3374881744384766,4.75,0.08,-11.01,11.99
1.347339153289795,-11.7,2.93,4.05,12.72
1.3603811264038086,-6.12,-2.21,-1.54,6.68
1.3671369552612305,11.61,-2.02,6.77,13.59
1.3789780139923096,13.43,-5.1,-4.94,15.19
1.386871099472046,1.35,-2.55,1.3,3.16
1.397341012954712,-8.04,3.57,0.67,8.82
1.411189079284668,-3.03,1.55,10.31,10.85
1.4169402122497559,4.26,0.04,-7.21,8.37
1.4291539192199707,0.91,-5.79,-2.71,6.45
1.4369049072265625,0.24,-1.97,-5.27,5.63
1.446660041809082,1.81,-4.15,6.21,7.68
1.458245038986206,1.73,-2.66,2.44,4.0
1.4665122032165527,-3.41,-0.42,-0.27,3.44
1.4790229797363281,-2.8,-2.55,8.94,9.7
1.4865710735321045,4.53,-0.78,1.92,4.98
1.496446132659912,2.46,-0.38,-10.36,10.65
1.5098161697387695,-2.8,9.0,-6.17,11.26
1.5162911415100098,0.9,-3.1,0.05,3.22
1.5283820629119873,6.19,-1.73,-4.41,7.79
1.5362560749053955,-0.6,13.34,-10.72,17.12
1.5465121269226074,-3.13,-7.99,-6.38,10.69
1.5595412254333496,8.52,-5.47,8.13,12.98
1.5662732124328613,13.35,8.94,9.32,18.57
1.5790362358093262,-6.6,9.85,-0.63,11.87
1.5861120223999023,-13.86,4.85,-1.64,14.77
1.5964078903198242,1.58,-1.35,-8.77,9.01
1.6095261573791504,10.28,-10.38,-7.63,16.48
1.6157560348510742,-1.17,-1.47,-2.98,3.52
1.6296629905700684,-8.91,16.94,16.89,25.52
1.635512113571167,7.88,-1.06,28.36,29.45
1.6461129188537598,23.89,-5.36,-12.93,27.68
1.660560131072998,8.01,-5.66,-19.14,21.5
1.6655001640319824,-17.62,-3.59,0.74,17.99
1.6795730590820312,-17.0,0.13,17.31,24.26
1.6865901947021484,6.49,0.37,14.12,15.54
1.6963601112365723,20.38,-5.09,4.05,21.39
1.7101171016693115,9.76,-11.45,-5.25,15.93
1.7161650657653809,-1.79,-8.01,-8.42,11.75
1.731511116027832,-5.4,-0.9,-5.08,7.46
1.7352440357208252,-2.25,0.6,14.0,14.19
1.7455029487609863,-0.29,2.88,11.09,11.46
1.7600300312042236,-0.48,1.7,0.38,1.8
1.7647829055786133,0.74,1.29,-7.73,7.87
1.7785990238189697,3.87,1.7,-4.64,6.27
1.7846710681915283,4.35,5.31,-5.71,8.92
1.7956640720367432,-1.71,9.7,-5.52,11.29
1.8092069625854492,-5.77,0.03,-1.16,5.88
1.8146100044250488,-1.37,-2.69,4.72,5.6
1.8273670673370361,6.23,-4.92,5.35,9.57
1.834650993347168,1.03,3.53,3.19,4.86
1.8449749946594238,-7.55,5.83,0.62,9.55
1.8587911128997803,-4.36,-0.96,-6.24,7.67
1.8647611141204834,4.65,0.28,-6.1,7.67
1.8775501251220703,1.62,4.56,-5.23,7.12
1.8841209411621094,-9.41,9.47,1.32,13.41
1.8955659866333008,-10.22,2.3,0.24,10.47
1.9086990356445312,1.14,-0.53,-3.61,3.82
1.913999080657959,7.85,2.23,-7.7,11.21
1.9271481037139893,1.79,1.76,3.33,4.17
1.9338901042938232,-0.63,-5.53,9.01,10.59
1.9446029663085938,4.8,-6.13,4.64,9.06
1.9570841789245605,1.96,-3.51,-0.57,4.06
1.9637598991394043,-9.72,-2.44,2.44,10.31
1.9774091243743896,-13.04,4.14,-8.24,15.97
1.9835381507873535,-5.95,-5.94,6.01,10.33
1.995439052581787,7.57,-4.4,2.39,9.07
2.007951021194458,13.58,1.83,1.25,13.75
2.013753890991211,-2.88,2.77,-1.39,4.23
2.027362108230591,-9.85,19.11,2.73,21.67
2.0335500240325928,-3.36,11.64,-6.3,13.65
2.0447440147399902,9.63,-3.43,-12.53,16.17
2.0573010444641113,12.91,-8.85,-11.75,19.57
2.0633981227874756,3.51,-5.84,-9.8,11.93
2.077054977416992,-2.06,-6.24,13.19,14.73
2.083220958709717,3.2,-6.16,10.67,12.72
2.0956459045410156,3.21,5.74,8.96,11.11
2.1088321208953857,-5.83,3.18,-2.34,7.04
2.1131460666656494,-6.74,3.94,-12.99,15.15
2.128087043762207,-0.25,0.48,-7.87,7.88
2.132970094680786,9.88,-4.35,-4.42,11.66
2.1443560123443604,10.85,-2.84,0.94,11.25
2.1569089889526367,2.73,-2.81,7.99,8.89
2.1628589630126953,-5.48,0.46,8.21,9.88
2.177370071411133,-3.73,1.48,1.34,4.23
2.182651996612549,3.36,-3.77,-10.18,11.36
2.194472074508667,5.66,-5.7,-8.5,11.69
2.206886053085327,1.69,-1.1,3.07,3.67
2.2128660678863525,1.66,6.92,9.96,12.24
2.227112054824829,4.77,3.34,4.26,7.21
2.2327780723571777,4.74,-0.06,-0.23,4.74
2.2449560165405273,2.25,-2.98,-2.1,4.28
2.2585110664367676,0.7,-1.15,-7.22,7.34
2.26224422454834,0.36,0.11,9.69,9.69
2.2786049842834473,1.19,-3.0,1.99,3.79
2.2820892333984375,0.29,-3.35,1.86,3.84
2.295499086380005,0.56,2.27,-1.35,2.69
2.308579921722412,1.72,1.45,4.52,5.04
2.3120951652526855,-0.58,9.26,-13.98,16.77
2.3287320137023926,-2.09,14.07,-11.35,18.19
2.331775188446045,0.87,-4.31,-15.62,16.22
2.3449480533599854,8.19,-8.62,-0.12,11.89
2.358107089996338,8.58,4.35,10.84,14.49
2.3621931076049805,-0.14,5.38,8.76,10.28
2.3800230026245117,-4.98,-9.36,-1.76,10.74
2.3818271160125732,-3.49,-18.61,-3.52,19.25
2.395319938659668,-2.5,10.87,0.64,11.17
2.4083762168884277,-6.24,21.1,-4.96,22.55
2.4113831520080566,-6.53,-0.15,-2.76,7.09
2.4213829040527344,17.79,-13.83,10.86,25.01
2.4317121505737305,26.72,-0.06,-4.43,27.08
2.4414360523223877,-2.36,18.34,-0.94,18.51
2.455833911895752,-22.28,7.46,7.07,24.53
2.4615859985351562,-14.64,-11.53,-0.58,18.64
2.471431016921997,8.33,-4.71,3.15,10.07
2.480992078781128,12.18,2.68,4.76,13.34
2.491168975830078,-6.73,7.29,-3.87,10.64
2.5045440196990967,-8.93,4.3,1.52,10.02
2.511590003967285,5.55,-2.82,-0.97,6.3
2.520848035812378,9.03,-0.2,-7.22,11.56
2.5310049057006836,-8.89,6.42,0.29,10.96
2.5405330657958984,-11.92,1.4,5.14,13.05
2.553471088409424,1.16,-4.21,0.7,4.42
2.5613040924072266,12.72,4.42,-1.46,13.54
2.5705950260162354,0.83,2.02,1.87,2.87
2.5809831619262695,-7.64,2.96,7.69,11.23
2.590351104736328,-1.78,1.8,-7.82,8.21
2.6043410301208496,3.89,-5.27,5.78,8.73
2.61086106300354,0.28,0.01,-6.21,6.21
2.6206421852111816,-2.59,5.57,9.05,10.93
2.630671977996826,-0.3,1.72,-9.01,9.17
2.639827013015747,4.78,-2.04,-0.93,5.27
2.6526870727539062,6.2,-3.13,-11.16,13.14
2.659881114959717,0.56,4.76,-10.07,11.15
2.6699070930480957,-6.9,0.24,1.66,7.1
2.680190086364746,-3.39,-3.48,3.42,5.94
2.6896350383758545,6.87,-3.98,12.48,14.79
2.7028040885925293,6.92,0.93,7.52,10.26
2.7105112075805664,-1.56,7.45,-0.41,7.62
2.719571113586426,-3.83,-5.48,-9.39,11.52
2.730257034301758,3.99,-2.84,-8.5,9.8
2.739631175994873,6.13,-0.81,-3.39,7.05
2.752786159515381,0.1,-2.52,3.9,4.64
2.759337902069092,-0.03,-1.47,20.09,20.14
2.769604206085205,3.88,-0.65,-4.76,6.17
2.7795119285583496,1.55,-1.6,0.98,2.43
2.789161205291748,0.5,-0.77,-6.28,6.34
2.802427053451538,-0.06,9.75,-11.7,15.23
2.809148073196411,-2.64,7.56,0.89,8.05
2.819303035736084,1.27,-5.84,5.48,8.1
2.829332113265991,6.74,-6.54,1.66,9.53
2.8394060134887695,2.2,3.2,-6.77,7.8
2.8526248931884766,-3.08,-0.37,0.38,3.12
2.8590831756591797,0.71,-1.31,2.16,2.62
2.8687219619750977,7.86,-4.65,5.45,10.63
2.8790369033813477,3.48,0.98,-4.56,5.81
2.888510227203369,-6.5,5.8,4.61,9.85
2.9019179344177246,-7.19,7.1,-4.37,11.0
2.908687114715576,0.05,9.9,-6.44,11.81
2.918689012527466,4.37,1.62,-5.3,7.05
2.9287350177764893,4.57,1.56,-4.1,6.33
2.938516139984131,1.24,0.59,-3.63,3.88
2.9517500400543213,1.19,-1.04,5.17,5.4
2.958186149597168,4.86,-3.37,11.65,13.06
2.9689202308654785,0.45,7.27,-6.96,10.07
2.978999137878418,-7.68,2.88,8.58,11.86
2.9887499809265137,0.15,-11.07,-3.71,11.67
3.0036890506744385,12.29,-11.01,-5.88,17.51
3.0082669258117676,8.14,-1.53,-2.4,8.62
3.017971992492676,-4.1,7.64,11.9,14.72
3.028250217437744,-7.13,5.34,4.29,9.88
3.0383801460266113,0.5,-2.26,11.11,11.34
3.053895950317383,5.73,-2.11,-12.05,13.5
3.057676076889038,1.3,3.77,-5.24,6.58
3.0680150985717773,-0.73,7.33,-0.26,7.37
3.07817006111145,2.08,2.14,4.16,5.11
3.0881361961364746,2.2,-4.45,-6.76,8.38
3.1041269302368164,-3.77,0.62,-9.8,10.51
3.107422113418579,-5.07,-0.74,0.81,5.18
3.1177711486816406,0.06,-0.65,4.35,4.39
3.1280269622802734,6.34,-2.18,11.32,13.15
3.1377501487731934,2.03,3.89,-8.86,9.88
3.152973175048828,-3.4,3.04,6.19,7.68
3.157102108001709,-0.12,1.43,-9.13,9.24
3.1673130989074707,2.97,5.14,-7.86,9.84
3.1778149604797363,4.42,-5.55,8.09,10.76
3.186859130859375,4.45,-6.2,9.77,12.39
3.2005600929260254,1.41,-0.3,-2.17,2.6
3.206852912902832,-4.76,-1.19,-6.35,8.02
3.217176914215088,-4.24,5.26,3.71,7.7
3.227612018585205,-2.7,9.18,-4.41,10.53
3.2368130683898926,-1.11,12.9,-3.66,13.45
3.2515780925750732,4.09,-11.12,10.28,15.68
3.2565059661865234,13.97,1.32,-2.87,14.32
3.267292022705078,2.92,3.86,-11.24,12.23
3.2766480445861816,-4.77,1.3,15.86,16.61
3.2863690853118896,-0.9,-0.74,-5.22,5.34
3.3010361194610596,5.16,1.02,-1.59,5.49
3.3063790798187256,-6.87,1.94,-12.94,14.77
3.316486120223999,-10.43,-0.87,-5.46,11.8
3.3264389038085938,0.53,-4.3,-14.54,15.17
3.3363780975341797,6.29,-10.7,-0.85,12.44
3.350954055786133,-2.33,7.45,35.99,36.82
3.3563179969787598,-5.57,17.13,7.78,19.62
3.3661980628967285,-4.04,-3.07,-7.6,9.13
3.3763670921325684,-3.21,-5.95,-29.08,29.85
3.386199951171875,2.65,7.18,-0.09,7.65
3.401776075363159,6.65,-4.26,-9.63,12.45
3.4058001041412354,7.36,-2.59,12.8,14.99
3.416048049926758,2.44,-1.22,7.17,7.67
3.4260060787200928,-0.86,-2.64,-0.11,2.77
3.435838222503662,-3.76,0.46,-1.46,4.05
3.451409101486206,-1.02,1.8,10.26,10.46
3.4554131031036377,1.57,-1.49,-2.91,3.62
3.466197967529297,1.57,-3.77,0.78,4.15
3.475553035736084,2.29,-8.93,2.44,9.53
3.4859609603881836,4.02,0.37,5.96,7.19
3.5005249977111816,-0.34,5.94,2.32,6.38
3.504983901977539,-3.67,0.62,2.98,4.76
3.5153260231018066,0.16,-3.38,-4.34,5.5
3.525346040725708,4.95,-4.74,-7.66,10.27
3.535346031188965,1.26,1.9,2.51,3.39
3.5501620769500732,-3.07,0.58,12.09,12.48
3.554589033126831,-0.99,1.32,-0.15,1.65
3.565129041671753,3.31,-7.57,2.22,8.55
3.5751919746398926,4.65,4.31,-6.39,9.0
3.5847392082214355,-2.75,6.18,-7.78,10.3
3.599229097366333,-5.54,3.94,1.73,7.01
3.604414939880371,0.82,1.66,-9.37,9.55
3.6147141456604004,3.99,-1.7,-12.19,12.93
3.6246440410614014,-0.16,1.53,-0.37,1.58
3.6347880363464355,-2.68,8.28,9.66,13.0
3.6491611003875732,-1.23,8.16,1.03,8.31
3.6540980339050293,1.66,-3.51,5.83,7.0
3.6645541191101074,2.76,-5.38,-5.4,8.1
3.6742382049560547,0.54,5.76,3.1,6.56
3.6845312118530273,-2.01,4.29,-3.15,5.68
3.7005491256713867,-4.09,-5.74,2.08,7.34
3.704346179962158,-2.9,-0.79,-9.04,9.52
3.7143568992614746,-0.04,-0.18,-6.81,6.81
3.7243690490722656,-1.05,-3.4,-4.03,5.37
3.734093189239502,-2.29,-9.19,-4.45,10.46
3.7485642433166504,-6.03,-0.92,-8.38,10.36
3.7535951137542725,-4.8,-3.84,23.98,24.75
3.764082908630371,-1.98,5.11,13.4,14.47
3.773953914642334,1.88,10.55,2.31,10.96
3.7839810848236084,0.34,-1.47,-9.31,9.43
3.799300193786621,1.21,1.53,-1.76,2.62
3.8034420013427734,0.88,2.9,-7.77,8.34
3.814055919647217,2.57,-1.58,13.28,13.61
3.823416233062744,-0.5,6.67,-5.14,8.43
3.834022045135498,-3.05,-5.13,4.7,7.59
3.848283052444458,-4.4,-1.25,-15.34,16.0
3.852980136871338,0.29,2.06,8.32,8.57
3.86365008354187,2.34,1.06,-19.25,19.42
3.873326063156128,0.64,2.64,-3.97,4.81
3.883394241333008,-4.68,-11.63,6.06,13.92
3.897463083267212,-1.93,4.11,12.09,12.91
3.9029970169067383,0.5,12.21,0.18,12.22
3.914480209350586,-1.73,-7.84,3.18,8.63
3.923340082168579,0.69,-0.69,4.35,4.45
3.9330601692199707,4.54,-2.92,-8.63,10.17
3.947359085083008,2.48,-7.12,-1.6,7.7
3.952522039413452,-3.04,6.67,0.97,7.39
3.963311195373535,-4.45,15.39,-0.56,16.03
3.97274112701416,-4.29,-12.19,6.11,14.29
3.9828391075134277,4.2,0.04,-6.09,7.39
3.997331142425537,2.47,2.24,-2.1,3.94
4.002313137054443,-0.8,-7.24,6.91,10.04
4.012269973754883,0.95,-1.56,4.31,4.68
4.022413015365601,4.25,-1.67,3.57,5.79
4.03298807144165,-2.44,9.05,-3.54,10.01
4.047218084335327,-5.89,-1.61,1.49,6.28
4.0521440505981445,-3.12,6.03,-14.02,15.57
4.063173055648804,2.86,2.42,5.92,7.0
4.072561025619507,4.36,-10.68,-5.55,12.8
4.082170009613037,0.45,-2.13,-5.51,5.92
4.095414161682129,-3.41,1.31,8.81,9.53
4.1017351150512695,-1.25,4.24,11.31,12.14
4.113619089126587,-1.55,13.24,-5.7,14.49
4.1219940185546875,-4.03,-5.47,2.31,7.17
4.13188910484314,0.42,-8.86,-22.15,23.85
4.146181106567383,3.25,2.16,-8.48,9.33
4.151550054550171,3.58,-11.19,17.53,21.1
4.163435935974121,-0.04,3.54,2.91,4.58
4.171514987945557,-3.95,17.16,-8.53,19.56
4.18208909034729,-0.79,-7.45,-3.06,8.09
4.196183204650879,0.41,-16.99,10.18,19.81
4.201458930969238,7.05,7.82,-4.32,11.38
4.212850093841553,-4.74,7.19,1.21,8.69
4.221873044967651,-3.84,-7.71,2.84,9.06
4.231400012969971,5.44,-6.47,3.95,9.33
4.245262145996094,10.91,-0.85,4.51,11.83
4.2509870529174805,-0.71,5.23,2.17,5.7
4.263327121734619,-6.07,-4.74,-6.54,10.1
4.271207094192505,-1.66,-11.01,-2.11,11.33
4.281111240386963,3.94,2.14,-7.26,8.53
4.294873237609863,0.5,8.6,1.13,8.68
4.300724983215332,0.79,-0.16,14.93,14.95
4.313967227935791,7.53,-3.79,5.61,10.12
4.321049213409424,3.67,-1.55,-6.06,7.25
4.331024169921875,-5.39,5.37,-9.79,12.39
4.345077991485596,-1.5,3.06,-6.52,7.35
4.3504509925842285,7.54,-5.25,-0.04,9.18
4.363109111785889,4.29,-0.29,3.7,5.67
4.370394229888916,-9.72,6.59,11.87,16.69
4.380690097808838,-5.25,-2.38,-1.23,5.89
4.3948869705200195,7.47,2.79,-8.41,11.58
4.40008807182312,7.64,-2.8,-4.71,9.4
4.412832021713257,-0.47,8.2,1.22,8.3
4.420330047607422,-3.5,-13.82,5.81,15.39
4.430295944213867,-2.89,-6.47,-6.0,9.28
4.444043159484863,-0.74,8.86,2.17,9.15
4.449930191040039,0.3,-6.8,6.19,9.2
4.463583946228027,3.01,2.79,-3.07,5.12
4.469840049743652,0.41,9.97,-18.0,20.58
4.479940891265869,-0.63,-2.17,-7.36,7.69
4.494132041931152,3.46,-3.37,6.31,7.94
4.499719142913818,4.84,3.73,7.28,9.5
4.5146400928497314,-0.68,1.8,15.55,15.66
4.519881010055542,-0.38,-11.67,10.64,15.79
4.530660152435303,5.8,-3.84,-2.55,7.4
4.544185161590576,3.25,3.14,3.05,5.45
4.549592018127441,-5.57,10.05,9.07,14.63
4.563207149505615,-2.76,3.05,-13.32,13.94
4.569581031799316,3.4,-6.97,-13.53,15.59
4.579411029815674,3.45,11.66,-15.52,19.71
4.5934600830078125,-0.97,-1.83,-5.95,6.3
4.599098205566406,-5.96,-5.86,-6.11,10.35
4.612645149230957,-1.27,6.06,-9.84,11.62
4.619024038314819,2.18,-3.7,35.91,36.16
4.629148960113525,9.34,10.69,3.63,14.65
4.6435441970825195,-0.27,6.54,-5.01,8.24
4.6487650871276855,-5.43,-12.14,-10.35,16.85
4.663401126861572,-2.28,-2.18,-2.63,4.1
4.668689012527466,0.31,-2.55,3.63,4.44
4.681538105010986,-0.49,3.07,9.89,10.36
4.695910930633545,0.49,1.68,0.71,1.88
4.69883394241333,2.85,-3.65,2.74,5.38
4.713393211364746,3.41,1.2,-11.03,11.6
4.718663215637207,-1.24,7.06,-6.04,9.37
4.7290730476379395,-5.31,2.32,5.09,7.71
4.74304723739624,-1.02,1.7,5.93,6.25
4.748112201690674,3.25,-4.56,2.26,6.03
4.761595010757446,0.23,0.22,2.96,2.97
4.768185138702393,-4.73,4.14,-12.3,13.81
4.779232978820801,-3.88,-2.72,12.47,13.33
4.792210102081299,1.17,11.98,-21.76,24.86
4.7979302406311035,1.33,5.08,-0.54,5.27
4.8129072189331055,1.23,-12.74,-1.75,12.91
4.81804895401001,7.16,-1.52,9.45,11.95
4.829446077346802,0.41,7.17,-7.02,10.04
4.842580080032349,-4.55,-4.78,18.72,19.84
4.847593069076538,-3.35,-7.85,-1.03,8.59
4.861814022064209,1.62,-6.7,-3.83,7.88
4.867617130279541,0.57,-4.38,2.4,5.02
4.879138946533203,0.3,10.03,3.26,10.55
4.893193006515503,-4.48,12.42,-2.63,13.46
4.897345066070557,-5.99,2.66,-1.19,6.66
4.911480903625488,1.23,-1.24,-11.21,11.34
4.917789936065674,4.97,-4.53,-13.53,15.1
4.9294281005859375,0.27,2.14,-3.54,4.14
4.942493915557861,-2.87,0.26,20.98,21.17
4.947082996368408,-1.34,-10.97,13.54,17.47
4.957548141479492,-3.82,4.81,-1.12,6.24
4.967474937438965,-3.57,-2.65,2.59,5.14
4.977144241333008,4.79,-1.51,-9.56,10.79
4.991372108459473,1.86,-4.77,-4.33,6.7
4.996764183044434,-5.59,11.11,-9.49,15.64
5.012886047363281,-6.66,2.4,-1.66,7.27
5.016832113265991,3.12,-14.84,-2.07,15.3
5.028219223022461,8.43,-3.73,-3.11,9.72
5.042351007461548,-0.3,3.88,18.31,18.71
5.046715021133423,-8.82,10.62,3.72,14.29
5.061516046524048,-3.11,3.2,10.56,11.46
5.066833972930908,5.12,0.98,-15.14,16.01
5.079174995422363,-0.03,-0.83,-13.37,13.39
5.093319892883301,-1.79,-12.99,4.98,14.02
5.096266031265259,2.03,1.29,5.41,5.92
5.112751007080078,6.87,5.63,9.12,12.73
5.1163060665130615,2.49,-4.39,1.32,5.21
5.128795146942139,-1.55,-1.03,-3.69,4.13
5.142285108566284,-2.72,-2.05,-5.87,6.78
5.145999908447266,1.23,15.32,-5.77,16.41
5.162022113800049,1.22,1.44,-2.58,3.19
5.165978908538818,0.47,-9.09,-4.6,10.19
5.179067134857178,-3.85,-7.07,-4.25,9.1
5.1933159828186035,-2.89,-6.42,3.8,8.0
5.196022033691406,1.65,3.41,8.7,9.48
5.212464094161987,3.57,5.41,3.93,7.58
5.216081142425537,-0.62,-0.76,2.01,2.23
5.228775978088379,-0.46,1.85,-9.97,10.15
5.2422099113464355,3.45,5.13,-5.11,8.02
5.245404243469238,5.19,3.53,-5.76,8.51
5.262115001678467,1.5,-4.13,7.25,8.47
5.2654640674591064,-4.49,-8.54,2.47,9.95
5.279087066650391,-4.3,7.07,-3.19,8.86
5.293237209320068,0.25,-1.64,2.27,2.81
5.295156002044678,3.5,-4.84,1.41,6.13
5.312753200531006,-0.74,2.55,-2.16,3.42
5.315214157104492,-4.39,3.27,-0.45,5.49
5.328805923461914,0.95,-0.59,5.26,5.37
5.342165946960449,4.64,-0.87,-2.79,5.48
5.344837188720703,-2.41,3.02,3.99,5.55
5.3630690574646,-6.78,3.91,-3.15,8.43
5.364933013916016,0.6,0.96,-2.33,2.59
5.379205226898193,8.28,-3.8,-0.95,9.15
5.391669034957886,2.21,1.92,-10.41,10.81
5.394711971282959,-7.15,-5.76,8.65,12.61
5.412137031555176,-2.83,2.31,9.67,10.33
5.4147162437438965,2.04,2.99,4.63,5.87
5.428894996643066,-0.72,-4.38,-3.15,5.44
5.441720962524414,-3.6,-1.71,-10.53,11.25
5.444364070892334,1.2,4.99,-12.35,13.37
5.4631640911102295,7.02,-1.51,-4.8,8.63
5.464396953582764,4.59,2.53,-3.14,6.1
5.48024320602417,-1.36,0.48,25.28,25.32
5.49367618560791,-2.18,1.37,-1.53,2.99
5.495119094848633,-1.66,-1.7,1.82,2.99
5.511992931365967,2.22,-10.29,2.28,10.77
5.513963222503662,4.48,-1.32,-2.22,5.17
5.530426025390625,-1.3,15.51,-9.09,18.02
5.5434699058532715,-5.0,1.82,-3.31,6.26
5.545091152191162,-0.43,-14.84,-13.81,20.27
5.5630340576171875,4.23,-4.68,9.78,11.63
5.564218044281006,1.71,8.3,2.92,8.96
5.579584121704102,-0.69,-0.17,16.56,16.57
5.591558933258057,2.12,0.73,3.65,4.28
5.594240188598633,4.27,-0.85,0.98,4.46
5.612653017044067,0.41,-1.52,-10.12,10.24
5.613821029663086,-1.87,0.01,-6.37,6.63
5.628719091415405,2.21,3.15,10.97,11.62
5.641849994659424,3.72,4.83,-5.57,8.25
5.644573211669922,0.14,4.66,-10.15,11.16
5.665298938751221,-0.21,-14.66,-0.2,14.66
5.666447162628174,2.76,4.03,-5.01,6.99
5.678992033004761,1.17,4.39,-0.58,4.58
5.691648006439209,-4.99,3.85,-4.63,7.82
5.695096969604492,0.48,-8.36,6.51,10.6
5.702799081802368,7.08,-10.17,7.3,14.38
5.713004112243652,-0.61,0.73,11.94,11.97
5.722991943359375,-3.22,-3.53,6.54,8.09
5.736110210418701,0.63,13.74,-11.24,17.76
5.7426440715789795,0.8,7.15,-11.36,13.44
5.752953052520752,-1.12,-11.66,-6.9,13.59
5.763090133666992,0.62,-1.1,3.14,3.38
5.772608041763306,-0.41,-4.23,4.95,6.52
5.785868167877197,-2.69,0.77,8.9,9.32
5.792717933654785,-0.76,2.06,8.11,8.4
5.8028600215911865,2.54,4.25,-7.57,9.04
5.813008069992065,-0.24,4.53,-12.93,13.7
5.8228490352630615,-0.75,-7.0,4.54,8.37
5.8374950885772705,2.96,1.03,6.33,7.06
5.842400074005127,0.53,4.35,-1.72,4.7
5.8525331020355225,-2.46,7.11,9.37,12.01
5.862741947174072,0.91,-3.25,-4.28,5.45
5.872063159942627,2.14,-4.4,-15.67,16.41
5.887092113494873,-2.33,4.17,2.17,5.24
5.891873121261597,-4.69,6.52,1.92,8.25
5.902007102966309,0.2,-1.28,2.8,3.08
5.9127020835876465,2.79,0.3,-6.53,7.1
5.922019004821777,-1.68,2.93,2.56,4.23
5.937313079833984,-2.28,-2.0,18.38,18.62
5.94147801399231,2.75,-4.19,1.32,5.18
5.951894044876099,2.59,-4.53,-7.94,9.5
5.962182998657227,-4.57,8.98,-1.47,10.18
5.971858024597168,-8.56,2.82,2.66,9.39
5.987340927124023,-1.99,-2.3,-14.82,15.12
5.991611003875732,1.32,-6.19,-9.89,11.74
6.0016210079193115,-3.15,1.11,1.31,3.58
6.012225151062012,-5.04,5.87,-2.78,8.22
6.021553993225098,0.87,-8.32,3.05,8.9
6.037017107009888,6.83,5.43,3.92,9.56
6.041368007659912,0.59,11.58,5.33,12.76
6.051595211029053,-2.32,-3.26,3.17,5.1
6.0617101192474365,6.58,-4.75,-3.04,8.66
6.071327209472656,7.98,-6.22,-1.76,10.26
6.08715295791626,-2.07,-6.54,2.3,7.23
6.090714931488037,-4.39,-2.63,-2.49,5.69
6.1013100147247314,-0.22,-2.39,3.52,4.26
6.111109018325806,-5.28,-6.57,11.82,14.51
6.120724201202393,-2.94,9.79,4.24,11.06
6.13603401184082,0.17,3.93,-4.72,6.14
6.140407085418701,5.14,3.61,-12.62,14.09
6.150641918182373,-0.48,10.01,-10.74,14.68
6.16073203086853,-1.32,0.9,-4.9,5.15
6.170774936676025,1.82,-7.98,13.01,15.37
6.185388088226318,5.43,-7.14,14.48,17.03
6.19052791595459,-2.96,0.73,7.99,8.55
6.200323104858398,-4.07,-4.37,-6.44,8.78
6.210801124572754,-0.39,2.35,-14.02,14.22
6.220536231994629,2.24,2.75,-7.87,8.63
6.2356860637664795,0.28,-1.56,-2.87,3.27
6.2397541999816895,-0.16,9.94,7.33,12.35
6.250314235687256,-1.4,0.0,5.82,5.98
6.260125160217285,-1.88,0.32,0.96,2.13
6.269998073577881,-2.22,5.99,-8.14,10.34
6.2848429679870605,-0.83,-2.1,-15.47,15.63
6.289645195007324,2.6,-11.12,-0.04,11.41
6.299723148345947,4.56,-7.52,8.04,11.91
6.309915065765381,1.44,8.43,8.61,12.13
6.32019305229187,-1.0,8.01,3.7,8.87
6.3350510597229,-0.15,5.23,5.27,7.42
6.339643955230713,-2.1,-4.51,1.47,5.18
6.349638938903809,-3.82,1.85,-4.64,6.28
6.3594970703125,-1.41,0.37,8.95,9.06
6.3694610595703125,2.15,-1.1,-8.59,8.92
6.38515305519104,3.25,1.06,-3.66,5.0
6.389296054840088,0.91,-8.71,-4.89,10.03
6.399378061294556,-1.72,-4.11,-7.22,8.48
6.409390926361084,-1.98,10.66,-10.16,14.85
6.419317007064819,0.88,3.74,-16.33,16.77
6.43445611000061,4.51,-7.51,12.58,15.32
6.438781023025513,4.27,-5.7,10.02,12.29
6.449412107467651,-3.69,2.74,7.47,8.77
6.458810091018677,-5.98,10.56,0.04,12.13
6.469123125076294,-0.34,3.15,-18.57,18.83
6.482645034790039,2.62,-11.05,6.0,12.84
6.488483905792236,7.17,-11.51,15.95,20.93
6.498760223388672,3.71,1.06,27.99,28.25
6.508572101593018,-4.47,7.71,-5.38,10.41
6.518773078918457,-6.49,5.61,-12.6,15.24
6.531476020812988,1.63,-12.08,-10.4,16.02
6.5384581089019775,10.91,-9.26,-10.35,17.66
6.548281192779541,5.02,0.0,-9.97,11.16
6.558367013931274,-8.24,7.58,-5.94,12.67
6.568295001983643,-6.26,-0.31,18.7,19.72
6.58286714553833,7.19,-13.33,22.71,27.29
6.587862014770508,4.69,2.44,2.38,5.79
6.598395109176636,-10.57,14.17,-16.67,24.29
6.60817289352417,-2.1,6.45,-1.29,6.9
6.618328094482422,5.58,-18.31,4.11,19.57
6.632051944732666,12.87,-1.99,-1.34,13.09
6.637722015380859,-5.62,5.23,8.12,11.17
6.649908065795898,-10.54,3.64,1.5,11.25
6.6578850746154785,0.26,2.1,-1.43,2.55
6.6677141189575195,10.23,-4.61,-8.23,13.91
6.681754112243652,4.53,2.93,-2.55,5.96
6.687804222106934,-7.21,1.93,-4.91,8.93
6.6980040073394775,-7.2,5.15,-3.39,9.47
6.707952976226807,-0.84,-0.23,1.78,1.98
6.717909097671509,6.33,-3.36,2.04,7.45
6.7321460247039795,-1.44,6.04,-5.36,8.2
6.737133979797363,-6.8,6.82,2.5,9.94
6.748198986053467,0.28,-1.47,4.01,4.28
6.757440090179443,8.73,4.68,-13.14,16.45
6.767461061477661,1.71,0.64,2.92,3.44
6.782133102416992,-5.49,-6.9,5.49,10.38
6.7867820262908936,-2.36,-7.41,2.0,8.02
6.797520160675049,3.24,-7.54,5.28,9.75
6.807123184204102,2.88,6.78,6.82,10.03
6.817795038223267,-2.72,1.79,-4.16,5.28
6.8333001136779785,-3.11,-0.53,-9.73,10.22
6.8368239402771,1.82,0.25,-11.21,11.35
6.847354888916016,4.53,1.13,-1.13,4.8
6.857285976409912,0.94,4.5,6.1,7.63
6.866847991943359,-1.38,-0.85,15.09,15.17
6.881647109985352,-0.62,1.1,-2.88,3.14
6.886296033859253,1.17,-11.32,-0.05,11.38
6.898005962371826,0.07,1.22,-10.95,11.01
6.906545162200928,-3.9,16.5,-2.74,17.17
6.9165120124816895,-3.57,-1.69,5.39,6.68
6.931572914123535,2.51,-8.34,-1.32,8.8
6.936159133911133,3.53,-10.95,4.99,12.54
6.947173118591309,0.32,2.59,7.06,7.52
6.95616602897644,-0.76,3.35,-2.54,4.27
6.966797113418579,0.95,5.69,0.58,5.79
6.981827020645142,4.32,1.55,3.1,5.53
6.986232042312622,1.31,-12.5,-9.22,15.58
6.9976091384887695,-3.2,0.43,-8.97,9.53
7.005843162536621,-3.72,12.09,1.35,12.72
7.016096115112305,-0.24,0.72,3.18,3.26
7.030736923217773,2.63,-3.26,2.04,4.65
7.035416126251221,2.07,-4.56,1.21,5.15
7.047684192657471,-1.73,3.18,-2.83,4.59
7.0553879737854,-0.74,5.05,16.43,17.2
7.065741062164307,3.02,1.46,4.45,5.57
7.079629898071289,1.04,-0.25,-2.86,3.05
7.085424900054932,-0.53,-8.81,2.6,9.2
7.096582889556885,1.44,-1.83,1.5,2.76
7.10550594329834,-2.45,9.26,-11.66,15.08
7.115708112716675,-3.26,9.05,-19.53,21.77
7.129859924316406,0.66,-2.85,-7.85,8.37
7.135073184967041,-0.83,-12.3,-19.99,23.48
7.147566080093384,10.16,-7.49,21.48,24.91
7.155285120010376,2.63,5.23,28.87,29.45
7.165364027023315,-8.28,21.52,-12.12,26.04
7.1798601150512695,-6.71,-2.43,-0.16,7.13
7.184921026229858,4.05,-21.14,-8.85,23.27
7.1969990730285645,16.55,4.63,6.45,18.35
7.204624176025391,-5.51,1.03,-1.21,5.73
7.215020179748535,-10.0,3.78,18.36,21.24
7.2299370765686035,0.3,-4.22,-12.83,13.5
7.234390020370483,9.63,-9.47,-0.54,13.51
7.2477312088012695,0.62,-1.73,-4.4,4.76
7.25448203086853,-6.47,11.32,0.13,13.03
7.264709949493408,-5.29,2.94,-10.61,12.21
7.279045104980469,1.1,-5.54,4.32,7.11
7.284256935119629,4.9,0.1,0.55,4.93
7.297646999359131,-2.6,3.69,-2.4,5.11
7.30407190322876,-3.18,8.01,-1.49,8.74
7.314423084259033,7.03,-5.52,5.66,10.57
7.329306125640869,10.76,-5.81,1.61,12.33
7.334150075912476,-1.57,-0.27,3.18,3.55
7.347795009613037,-7.4,-0.41,2.94,7.97
7.35415506362915,-0.64,5.97,-2.66,6.56
7.364948034286499,4.66,0.93,2.59,5.41
7.378997087478638,2.1,-2.56,3.19,4.59
7.383793115615845,-6.03,0.1,-7.94,9.97
7.398045063018799,-7.68,2.81,-1.78,8.36
7.403564929962158,2.05,-0.41,3.57,4.13
7.4146881103515625,6.8,0.24,-5.27,8.6
7.429126024246216,-1.18,3.92,-5.16,6.58
7.433528900146484,-7.25,-4.14,-5.41,9.94
7.448622226715088,-1.91,-0.87,-1.71,2.7
7.453280925750732,5.66,-2.92,7.72,10.0
7.4652509689331055,6.42,2.46,12.59,14.34
7.4797210693359375,-0.11,6.11,5.54,8.24
7.483509063720703,-3.89,9.92,-8.43,13.58
7.493154048919678,-1.46,-8.11,-5.39,9.84
7.503303050994873,3.35,-10.06,-12.37,16.29
7.513710975646973,-0.36,0.88,1.02,1.39
7.528709888458252,-4.35,8.13,-1.37,9.32
7.532644033432007,-1.53,-3.37,10.72,11.34
7.548209190368652,6.66,-11.82,4.98,14.45
7.552711009979248,7.46,0.04,-2.98,8.03
7.5646772384643555,-3.22,7.3,3.96,8.9
7.578900098800659,-6.41,9.4,5.07,12.45
7.582771062850952,0.55,-5.18,-5.53,7.59
7.598677158355713,2.58,-0.84,-5.45,6.08
7.602586030960083,-1.92,1.88,-7.82,8.26
7.615458011627197,-2.3,5.18,-3.92,6.89
7.630131006240845,2.29,-0.49,-0.36,2.36
7.632293224334717,6.53,-1.5,-2.41,7.12
7.648231029510498,1.26,-3.15,5.71,6.64
7.651976108551025,-5.6,2.79,4.89,7.94
7.664484977722168,-4.17,3.6,4.94,7.39
7.67793607711792,3.05,-10.16,-0.15,10.6
7.681921005249023,4.54,-6.05,4.31,8.7
7.697368144989014,-1.46,-0.16,-1.05,1.8
7.702206134796143,-2.02,7.64,-3.41,8.6
7.714522123336792,2.18,0.3,2.84,3.59
7.72795295715332,5.57,-5.88,5.31,9.68
7.7317540645599365,1.32,-2.19,-7.98,8.37
7.747383117675781,-5.54,11.28,-13.9,18.73
7.7516350746154785,-2.99,6.59,3.43,8.0
7.76469612121582,2.36,-5.42,-6.12,8.5
7.778284072875977,5.98,2.84,-2.58,7.1
7.781368017196655,-5.31,-1.79,-7.3,9.2
7.79665994644165,-5.76,5.29,5.41,9.5
7.8013410568237305,0.97,-8.44,14.98,17.22
7.813100099563599,10.42,-7.2,9.04,15.56
7.826807022094727,1.56,-0.08,-5.06,5.29
7.8315041065216064,-6.95,1.39,1.21,7.19
7.846349239349365,-4.0,1.59,-1.41,4.52
7.851290225982666,3.75,4.55,-5.09,7.78
7.863444089889526,-0.09,2.7,-6.17,6.73
7.877197027206421,-2.53,-3.62,-5.2,6.82
7.880974054336548,0.23,4.38,3.6,5.67
7.896857023239136,0.97,7.37,0.71,7.46
7.900891065597534,1.13,-3.43,6.52,7.45
7.9133992195129395,-1.0,-2.65,-5.42,6.11
7.927793025970459,-3.52,1.96,-2.23,4.6
7.930586099624634,-0.18,-4.75,2.61,5.42
7.946564197540283,3.6,-2.07,7.8,8.83
7.950467109680176,0.86,2.78,0.96,3.06
7.963469982147217,-1.9,5.9,-6.34,8.86
7.977322101593018,0.04,1.6,0.6,1.7
7.9808430671691895,4.26,-2.64,9.53,10.76
7.996495008468628,0.28,3.05,-7.62,8.21
8.000479221343994,-7.99,-0.33,-9.5,12.41
8.013071060180664,-4.82,-10.48,-0.17,11.53
8.027054071426392,3.11,-6.74,14.32,16.12
8.03013300895691,4.11,-0.16,7.33,8.4
8.047132015228271,-4.61,6.45,-4.59,9.16
8.049873113632202,-5.28,3.4,4.21,7.56
8.063074111938477,3.31,6.21,-10.15,12.35
8.077089071273804,4.75,9.03,-18.9,21.47
8.079975128173828,-3.43,-3.53,-6.29,7.98
8.0968599319458,-5.08,-1.25,-7.28,8.96
8.09962010383606,1.45,-7.67,5.24,9.4
8.113164901733398,5.14,-8.2,12.31,15.65
8.128363132476807,-0.22,5.56,18.0,18.84
8.129826068878174,-5.63,5.11,12.45,14.58
8.146750926971436,-1.57,3.52,-11.89,12.49
8.149576187133789,5.78,-5.24,-5.6,9.6
8.163259983062744,4.81,-1.56,-3.96,6.42
8.176965236663818,-1.93,3.07,-3.47,5.01
8.17929220199585,-5.43,-0.07,-8.83,10.36
8.196834087371826,-1.8,0.18,-12.18,12.31
8.199087142944336,-0.56,-5.85,3.73,6.96
8.212992191314697,0.41,-7.18,21.24,22.42
8.227061033248901,9.62,5.71,1.7,11.31
8.229099035263062,-3.85,13.78,-13.68,19.79
8.247708082199097,-7.49,4.17,-15.53,17.73
8.248915195465088,-0.97,-9.42,-2.95,9.91
8.263751029968262,5.4,-13.42,12.07,18.83
8.27775502204895,-0.49,3.15,13.26,13.63
8.279308080673218,-9.27,2.7,5.63,11.17
8.297132968902588,-7.08,9.51,2.93,12.21
8.298882961273193,2.44,-1.89,-3.0,4.3
8.312856197357178,7.17,-6.15,-13.3,16.31
8.32706904411316,-1.79,1.85,-7.09,7.54
8.32902717590332,-5.58,3.06,4.49,7.78
8.34743595123291,0.47,-0.4,6.32,6.35
8.348618030548096,6.79,-4.06,9.02,11.99
8.364080905914307,0.38,-5.17,2.92,5.94
8.37807011604309,-7.21,13.25,-11.11,18.73
8.379463195800781,-4.39,3.14,1.01,5.49
8.397087097167969,6.11,-4.07,-8.26,11.05
8.398273944854736,3.98,5.54,-3.1,7.49
8.41409707069397,-4.08,-5.84,4.1,8.21
8.428226947784424,-4.63,-0.29,8.9,10.03
8.42970609664917,0.97,10.84,2.07,11.07
8.448585987091064,1.88,-9.13,7.67,12.07
8.44992709159851,-1.95,-1.63,-6.26,6.75
8.465183019638062,-7.84,9.47,-2.58,12.56
8.4791841506958,-3.93,2.2,-5.23,6.9
8.48056411743164,0.24,-8.84,-3.17,9.39
8.497793197631836,4.61,-11.01,1.46,12.02
8.499036073684692,-2.02,1.77,14.12,14.37
8.513559103012085,-5.74,13.29,0.11,14.47
8.527355194091797,-3.54,-2.23,1.35,4.39
8.529085159301758,5.17,-1.87,-11.7,12.92
8.547445058822632,1.65,12.07,-20.7,24.01
8.548587083816528,-4.37,2.31,-12.8,13.72
8.564317226409912,-5.63,-15.24,4.14,16.76
8.57817792892456,-0.78,-6.81,36.08,36.72
8.579476118087769,2.76,0.37,11.51,11.84
8.596949100494385,-1.85,9.43,-18.16,20.54
8.598205089569092,-1.09,1.88,-3.21,3.87
8.6165452003479,2.04,-18.58,-5.27,19.42
8.630636215209961,-0.76,-2.41,-3.65,4.43
8.63198208808899,-8.44,11.13,-6.72,15.5
8.648574113845825,-0.76,0.43,21.23,21.24
8.649837970733643,9.06,-5.27,3.13,10.93
8.663915157318115,5.96,3.11,-11.05,12.93
8.677809238433838,-5.55,-2.98,3.08,7.01
8.679356098175049,-2.26,5.17,-9.34,10.91
8.696860074996948,4.13,8.27,1.76,9.4
8.698105096817017,5.5,-1.07,-0.62,5.63
8.713850975036621,-2.32,-5.83,5.77,8.52
8.72779107093811,-5.61,0.92,-4.82,7.45
8.729506015777588,1.99,-2.73,6.69,7.49
8.74717092514038,7.07,-6.08,-2.72,9.71
8.748423099517822,0.53,10.32,-6.15,12.02
8.765047073364258,-5.88,-3.77,10.39,12.51
8.779900074005127,-1.27,-4.81,-0.18,4.97
8.781280040740967,4.89,5.61,-8.18,11.05
8.797140121459961,4.36,-3.87,-4.02,7.08
8.79826307296753,1.58,2.25,1.56,3.16
8.81376600265503,0.18,0.43,0.72,0.85
8.827281951904297,-1.91,-8.68,-4.57,9.99
8.828869104385376,-4.63,-1.98,2.58,5.65
8.846988201141357,-0.68,4.79,6.04,7.73
8.848257064819336,5.77,4.52,5.2,8.98
8.864343166351318,3.97,-6.64,0.06,7.73
8.878355979919434,-3.0,-0.52,4.12,5.12
8.87968921661377,-3.74,3.2,-2.4,5.47
8.89795708656311,0.81,2.33,-5.87,6.36
8.899118900299072,1.94,1.64,-2.4,3.49
8.914184093475342,-3.39,-2.72,-4.15,6.0
8.92844009399414,-4.04,-2.87,-7.32,8.83
8.929770946502686,1.86,0.95,2.47,3.23
8.947642087936401,6.26,6.84,2.48,9.59
8.94870901107788,2.18,1.55,10.0,10.35
8.963619232177734,-2.19,-5.41,-3.32,6.71
8.97765588760376,-2.76,3.93,-2.52,5.42
8.979372024536133,-1.88,-3.73,0.94,4.28
8.997135162353516,-0.07,-0.79,-1.5,1.69
8.998313903808594,-1.6,0.76,-5.48,5.75
9.014344215393066,-3.79,-8.44,7.09,11.65
9.028597116470337,0.17,3.01,4.68,5.56
9.02996301651001,5.17,9.27,-1.78,10.76
9.034801959991455,4.55,2.6,1.75,5.52
9.044594049453735,-1.03,5.64,-6.23,8.46
9.054718017578125,-6.67,-1.04,-2.38,7.15
9.069210052490234,-3.45,-2.55,-5.17,6.71
9.074243068695068,2.26,-3.16,-2.21,4.46
9.084304094314575,4.24,2.44,6.86,8.42
9.094348907470703,-1.05,0.31,12.47,12.51
9.104379177093506,-5.33,-7.29,-5.08,10.36
9.11853313446045,-4.04,1.74,-0.96,4.5
9.12388801574707,3.09,10.91,-1.72,11.46
9.134151935577393,6.68,-8.02,-3.26,10.93
9.144357204437256,3.79,3.96,-9.3,10.79
9.153849124908447,-4.09,2.8,-4.87,6.94
9.168580055236816,-7.99,-4.92,4.28,10.31
9.173704147338867,-1.41,-6.22,3.36,7.2
9.184319972991943,3.94,1.46,-2.47,4.87
9.193789958953857,-0.16,4.78,15.56,16.27
9.204028129577637,0.3,-8.4,2.78,8.85
9.218703031539917,4.55,-3.93,0.21,6.01
9.223389148712158,-1.83,8.77,-1.14,9.03
9.233603954315186,-4.02,5.29,0.31,6.65
9.243449211120605,0.92,-1.44,-15.81,15.9
9.253474235534668,1.61,-1.8,-1.44,2.81
9.268359184265137,-1.73,-4.65,18.95,19.58
9.273219108581543,-0.8,0.35,-2.33,2.48
9.283435106277466,-0.93,10.1,5.65,11.61
9.293797016143799,-0.33,-3.6,-19.17,19.5
9.303476095199585,3.96,-2.22,-1.29,4.71
9.318408012390137,1.13,0.12,-17.12,17.15
9.322998046875,-2.47,4.6,0.04,5.22
9.333052158355713,-2.8,-4.11,0.53,5.0
9.34304404258728,3.45,-2.67,19.97,20.44
9.35308313369751,5.01,5.84,-2.42,8.06
9.368525981903076,1.79,-0.13,11.49,11.62
9.372940063476562,-1.34,-4.24,-5.13,6.78
9.382964134216309,0.42,3.09,0.25,3.12
9.393160104751587,0.65,1.0,1.3,1.76
9.40350604057312,-0.89,-4.1,3.71,5.6
9.41852617263794,-1.84,1.34,-3.52,4.19
9.422826051712036,-1.36,2.11,-5.2,5.77
9.432703971862793,0.59,4.16,-14.36,14.96
9.443024158477783,1.38,-4.02,-8.29,9.31
9.452601909637451,1.34,-6.74,6.42,9.4
9.467848062515259,0.85,-3.76,11.51,12.13
9.472430229187012,0.67,2.15,6.79,7.15
9.482680082321167,-1.58,8.7,-1.36,8.94
9.49253797531128,-0.49,-2.94,0.27,2.99
9.502494096755981,2.79,-3.2,-2.08,4.72
9.517502069473267,2.05,-0.69,-8.03,8.31
9.52204418182373,-0.83,0.69,4.63,4.75
9.532887935638428,-0.03,-0.11,18.77,18.77
9.5419340133667,0.65,0.1,2.58,2.66
9.552669048309326,-0.11,0.53,-14.35,14.36
9.56833791732788,-0.96,-6.92,-9.42,11.72
9.571875095367432,-9.37,3.47,-3.27,10.51
9.582746982574463,-7.8,-0.76,1.29,7.94
9.591975212097168,0.38,-2.06,-7.09,7.39
9.601931095123291,0.99,11.52,-5.23,12.69
9.617080211639404,-1.42,15.83,7.07,17.39
9.621616125106812,6.31,-4.72,11.47,13.91
9.632167100906372,13.22,-5.73,-0.64,14.42
9.642070055007935,2.49,-6.78,-5.61,9.14
9.651628017425537,-4.77,3.6,3.67,7.01
9.667748928070068,-1.57,4.5,1.62,5.03
9.671178102493286,0.23,0.73,4.13,4.2
9.683487892150879,4.44,-6.68,-14.92,16.93
9.691325187683105,-3.0,-4.58,-14.19,15.2
9.701228141784668,-7.85,3.48,8.31,11.94
9.715731143951416,-0.6,1.7,14.49,14.6
9.720906019210815,7.75,-3.69,6.68,10.87
9.73209524154663,1.47,-4.66,2.9,5.68
9.740936040878296,-1.67,-6.85,-0.64,7.07
9.751255989074707,-0.54,5.0,-7.81,9.28
9.766063213348389,-1.96,8.4,-2.31,8.92
9.770573139190674,-2.53,8.72,-11.3,14.49
9.782246112823486,-0.07,-0.16,3.94,3.94
9.790926933288574,3.4,-11.04,0.21,11.55
9.800361156463623,3.74,1.81,0.04,4.15
9.814702987670898,2.49,-3.15,7.9,8.86
9.820223093032837,3.03,-4.16,8.01,9.52
9.831960201263428,2.12,6.16,0.97,6.58
9.840354919433594,-1.92,-1.56,-7.18,7.59
9.850314140319824,1.07,-3.65,-6.93,7.9
9.864799976348877,4.19,-4.89,-3.48,7.31
9.869851112365723,2.18,8.57,3.85,9.64
9.881668090820312,-3.05,7.23,-2.41,8.2
9.889994144439697,-2.07,-5.17,8.37,10.05
9.90041208267212,5.43,-3.6,-9.11,11.19
9.914959907531738,1.98,-1.89,-7.94,8.39
9.919861078262329,-3.41,-1.65,19.83,20.18
9.932254076004028,1.47,6.42,-0.09,6.58
9.939847946166992,2.05,13.04,-13.38,18.79
9.949602127075195,-0.98,2.63,-20.23,20.42
9.964560985565186,-0.19,-17.49,0.71,17.5
9.969563007354736,2.24,-9.01,5.22,10.65
9.98245620727539,2.7,5.73,15.69,16.92
9.98956298828125,-2.35,6.29,9.18,11.37
9.999351024627686,-3.08,2.36,16.93,17.36
10.01442813873291,8.82,-10.28,-6.89,15.19
10.019155025482178,7.54,-5.83,-9.29,13.3
10.032482147216797,-8.43,13.77,3.85,16.59
10.038981914520264,-10.48,3.45,19.14,22.09
10.049312114715576,6.23,1.21,-12.54,14.05
10.064496040344238,5.17,9.89,-23.38,25.9
10.06881308555603,-1.53,-6.05,-17.82,18.88
10.08280611038208,-0.08,-9.77,6.43,11.69
10.088773012161255,-3.84,4.26,-7.34,9.31
10.098836898803711,0.51,-2.18,14.62,14.79
10.113660097122192,-1.06,1.57,6.95,7.2
10.11891508102417,-0.93,5.42,-7.32,9.15
10.131824970245361,-2.62,6.78,-3.73,8.16
10.138722896575928,0.89,-8.07,8.19,11.53
10.148921012878418,3.09,5.15,9.59,11.31
10.164010047912598,-0.9,7.79,-7.86,11.1
10.168384075164795,-3.36,-10.54,9.79,14.77
10.182165145874023,-1.43,-4.05,0.52,4.32
10.188220977783203,0.14,4.2,-0.69,4.25
10.198447227478027,-3.0,0.67,-3.33,4.53
10.213613986968994,0.01,-1.88,-0.79,2.03
10.217938899993896,-0.86,6.02,-10.19,11.86
10.23176097869873,-3.08,6.81,-1.17,7.56
10.237910032272339,-2.9,-6.49,-3.73,8.02
10.249030113220215,1.54,-0.43,-5.39,5.62
10.263989925384521,1.22,-1.72,2.2,3.04
10.267635107040405,3.25,-10.78,21.81,24.54
10.283354043960571,1.9,4.18,-13.83,14.57
10.287753105163574,-0.47,-0.86,7.28,7.34
10.298768043518066,-0.67,-11.07,-1.44,11.18
10.31354308128357,0.89,7.57,-1.5,7.76
10.31749701499939,-1.53,8.36,-10.5,13.5
10.332287073135376,-1.16,2.5,20.74,20.92
10.337697982788086,4.37,5.54,5.33,8.84
10.348512172698975,2.65,-6.36,-9.8,11.97
10.363285064697266,-8.01,4.21,-14.55,17.13
10.367146015167236,-5.08,3.53,-0.13,6.18
10.382246017456055,0.57,-13.71,-2.68,13.98
10.38717794418335,6.15,-2.92,7.1,9.83
10.399225234985352,3.94,11.77,11.51,16.92
10.414045095443726,0.48,5.33,-2.97,6.12
10.416860103607178,-4.93,-8.66,-18.64,21.13
10.432133197784424,-4.43,1.33,-16.04,16.69
10.436849117279053,-0.49,1.24,6.93,7.05
10.449178218841553,5.82,-9.62,15.06,18.79
10.463618040084839,4.06,-3.58,1.28,5.56
10.466626167297363,-3.44,1.4,1.72,4.09
10.481794118881226,-4.25,-12.92,8.91,16.25
10.486804008483887,-0.35,3.42,3.72,5.06
10.499701023101807,0.92,13.36,5.6,14.51
10.515357971191406,1.52,-1.38,0.63,2.14
10.516714096069336,-0.39,3.02,-8.33,8.86
10.532316207885742,0.35,0.19,-6.41,6.42
10.536269187927246,0.56,2.45,-12.63,12.87
10.548861980438232,0.72,10.65,-3.43,11.21
10.563433170318604,0.74,-2.49,16.4,16.6
10.565998077392578,1.13,-6.18,-5.52,8.36
10.576277017593384,-4.25,-0.8,-5.76,7.2
10.586596965789795,-2.84,3.68,-10.9,11.84
10.596053123474121,2.0,4.58,-11.86,12.86
10.610145092010498,4.82,-5.94,-0.46,7.66
10.615990161895752,6.26,-22.47,34.13,41.33
10.632774114608765,-2.75,12.24,6.57,14.16
10.635982036590576,-7.66,12.84,0.02,14.95
10.648587226867676,-4.08,-4.19,-2.4,6.32
10.663270950317383,5.98,-7.02,-4.0,10.05
10.66566801071167,4.91,-8.29,-2.88,10.05
10.68270206451416,-5.52,4.3,-7.46,10.22
10.685381889343262,-8.56,10.89,-15.48,20.77
10.699907064437866,2.02,-3.79,9.4,10.33
10.71518611907959,0.15,-4.52,12.05,12.87
10.716583013534546,10.75,-0.31,10.65,15.13
10.732428073883057,-6.18,10.98,-8.38,15.13
10.73518705368042,-7.04,15.07,2.22,16.78
10.749032020568848,-2.76,-12.72,-5.49,14.12
10.763751983642578,10.21,-2.39,-14.02,17.5
10.764965057373047,-0.06,-1.83,-10.94,11.09
10.783404111862183,-9.34,-8.74,11.98,17.52
10.785290241241455,-0.79,-6.27,14.6,15.9
10.800458908081055,8.28,-1.85,13.67,16.08
10.81496810913086,-1.73,14.64,-1.27,14.79
10.81618595123291,-10.06,2.64,0.59,10.41
10.832770109176636,-0.44,-4.67,-15.43,16.12
10.83445119857788,6.38,-1.72,-15.11,16.49
10.848675012588501,4.64,4.62,-7.02,9.59
10.862991094589233,-1.97,2.64,-3.11,4.53
10.864511966705322,-5.54,-8.89,5.48,11.82
10.881964206695557,-4.22,5.7,2.96,7.68
10.884253978729248,3.07,-1.21,3.77,5.01
10.898616075515747,4.8,8.26,-0.92,9.59
10.912596225738525,4.4,5.52,-1.77,7.27
10.914443969726562,3.4,-10.59,-1.0,11.16
10.932847023010254,-0.19,-5.22,2.0,5.59
10.934147119522095,-4.06,-7.7,2.25,8.99
10.947434902191162,-5.12,4.92,5.89,9.22
10.961219072341919,-2.47,5.31,14.03,15.2
10.963907241821289,2.21,-12.48,-6.5,14.24
10.981904029846191,1.17,1.75,-16.55,16.68
10.983618021011353,-2.48,4.61,14.97,15.85
10.997124195098877,-0.51,-0.28,7.77,7.79
11.01106595993042,0.53,0.0,6.19,6.21
11.013505935668945,-3.29,-1.02,0.6,3.49
11.030883073806763,-1.09,2.74,2.83,4.08
11.033435106277466,2.23,2.56,-23.65,23.89
11.04722809791565,1.52,8.41,-14.68,16.98
11.061398983001709,-3.16,7.97,-12.94,15.52
11.06363296508789,-1.25,-6.64,-1.34,6.88
11.081375122070312,5.46,-7.22,3.43,9.68
11.083146095275879,2.67,-7.04,13.17,15.17
11.098045110702515,-4.62,8.08,5.39,10.75
11.111831188201904,-2.25,-4.37,10.31,11.42
11.113720893859863,4.42,-4.91,-2.83,7.18
11.131349086761475,2.29,11.17,-6.96,13.35
11.132942199707031,-4.97,2.91,-6.75,8.87
11.148096084594727,-1.41,-7.32,-4.58,8.74
11.162535190582275,-0.93,-4.0,-10.39,11.17
11.16380500793457,-0.76,-6.75,22.59,23.58
11.18139123916626,-1.91,-10.64,21.41,23.98
11.18255615234375,-3.15,9.89,4.63,11.36
11.197564125061035,0.47,-2.9,-0.01,2.93
11.211849212646484,8.5,-3.73,-7.13,11.7
11.213549137115479,-1.18,5.67,-14.1,15.24
11.232222080230713,-9.61,3.47,-5.08,11.41
11.233281135559082,1.14,-2.23,-10.8,11.08
11.248502016067505,7.53,-12.78,-12.44,19.35
11.263512134552002,3.82,-4.42,-0.9,5.91
11.264873027801514,0.0,0.11,24.85,24.85
11.28177809715271,-9.43,6.25,8.27,14.01
11.2828950881958,3.41,8.77,-2.0,9.61
11.298433065414429,8.04,-2.15,-20.44,22.06
11.313107013702393,10.53,6.31,2.28,12.48
11.31450891494751,3.56,8.05,-5.48,10.36
11.33163595199585,-1.54,-4.66,16.49,17.2
11.332712173461914,-4.06,-3.59,16.46,17.32
11.34829306602478,-0.55,-1.83,-3.71,4.17
11.362998008728027,2.8,-3.76,-0.99,4.79
11.364191055297852,4.75,6.34,-10.85,13.43
11.381937026977539,-1.89,10.06,-20.42,22.84
11.383007049560547,-4.89,-1.26,7.34,8.9
11.398272037506104,-5.31,6.3,-24.36,25.71
11.413166999816895,-2.36,-12.54,13.52,18.59
11.41440200805664,2.81,-10.23,10.87,15.18
11.431803226470947,2.28,17.27,-5.37,18.22
11.432882070541382,-0.41,-0.76,10.05,10.08
11.448663234710693,6.43,-8.85,6.01,12.48
11.46279501914978,4.47,-0.41,-1.88,4.86
11.46399211883545,-6.43,0.92,3.28,7.27
11.482666015625,-4.91,-0.89,2.83,5.73
11.483727931976318,4.91,-6.98,-0.65,8.55
11.49922513961792,8.06,-11.1,-3.52,14.16
11.513511180877686,0.46,0.9,4.28,4.39
11.514706134796143,-3.41,5.38,1.96,6.66
11.53172492980957,0.68,5.14,-14.31,15.22
11.532791137695312,5.75,-1.14,-4.21,7.21
11.548396110534668,3.3,-12.12,-0.62,12.57
11.56247091293335,-1.02,-3.23,11.08,11.58
11.564557075500488,-3.65,4.29,3.54,6.65
11.58164119720459,-1.34,10.41,-1.98,10.68
11.582860946655273,3.7,5.61,3.35,7.5
11.598100185394287,9.6,-6.63,-5.31,12.81
11.611972093582153,-0.8,7.72,-23.29,24.54
11.61366319656372,-8.63,3.48,9.91,13.59
11.633311033248901,-1.41,-9.5,4.07,10.43
11.634331226348877,8.31,-1.35,14.36,16.64
11.649874210357666,7.09,0.97,8.65,11.22
11.664451122283936,-0.49,-1.52,-6.87,7.05
11.665677070617676,-3.7,2.13,-7.88,8.96
11.682290077209473,-0.05,3.49,-6.8,7.64
11.683541059494019,0.05,5.78,-10.91,12.34
11.698359966278076,-2.24,7.54,-10.12,12.81
11.713726043701172,2.52,-5.74,4.56,7.75
11.715086936950684,8.83,-14.61,17.78,24.64
11.733320236206055,0.78,9.6,-0.3,9.63
11.734410047531128,-9.64,14.82,0.96,17.7
11.749046087265015,-2.34,-5.94,4.79,7.98
11.763819217681885,11.95,-9.49,-4.17,15.81
11.765077114105225,4.12,2.38,-15.27,15.99
11.781384944915771,-9.12,1.66,10.51,14.01
11.782867908477783,-2.74,-6.55,20.64,21.82
11.79955005645752,11.0,-5.11,-0.12,12.12
11.813621997833252,1.89,-7.97,-5.03,9.61
11.814929962158203,-8.48,-1.52,-0.12,8.61
11.832097053527832,-6.26,9.85,-8.1,14.2
11.83323621749878,1.88,11.61,-7.62,14.01
11.849385023117065,7.45,-11.39,-6.31,15.0
11.863261222839355,5.84,-17.82,2.9,18.97
11.864525079727173,-2.5,3.71,7.0,8.3
11.881365060806274,-7.03,8.2,7.36,13.07
11.882750034332275,1.77,5.16,6.54,8.51
11.899102210998535,11.54,-6.33,5.46,14.24
11.91288423538208,7.77,-1.34,-12.02,14.37
11.914053916931152,-7.69,14.98,-9.13,19.15
11.931262969970703,-8.16,7.21,-4.66,11.84
11.932621955871582,4.02,4.65,-1.16,6.25
11.948500156402588,9.27,-7.42,-3.78,12.46
11.962543964385986,-1.27,-1.4,-1.8,2.61
11.96412706375122,-5.38,-2.63,11.4,12.87
11.981491088867188,4.52,-3.58,13.31,14.5
11.982533931732178,8.78,10.81,-10.51,17.44
11.998802185058594,-3.2,6.6,-6.46,9.77
12.012864112854004,-6.41,-6.46,-7.26,11.64
12.014060020446777,0.36,2.02,-1.02,2.29
12.031706094741821,3.14,3.17,6.58,7.95
12.03274393081665,-2.3,-2.3,-0.17,3.25
12.049267053604126,-0.37,-1.93,10.68,10.85
12.063178062438965,5.57,-8.51,9.26,13.75
12.064369201660156,3.12,3.28,-0.89,4.61
12.081307888031006,-2.02,-1.62,-8.13,8.53
12.082518100738525,-0.14,-2.06,-8.37,8.62
12.098469018936157,1.52,4.75,5.19,7.19
12.112575054168701,0.58,-2.76,-7.87,8.36
12.114005088806152,0.73,-0.02,-1.58,1.74
12.117496013641357,1.55,-3.64,1.65,4.28
12.127745151519775,-0.56,0.89,1.18,1.58
12.13777208328247,-2.49,3.1,-4.45,5.96
12.152756214141846,-0.32,-1.57,9.94,10.06
12.157297134399414,2.62,3.61,2.84,5.28
12.167606115341187,2.4,-5.86,3.81,7.39
12.17743706703186,0.52,1.16,-2.82,3.09
12.18761396408081,-2.78,6.56,-9.92,12.21
12.202161073684692,-2.73,-4.21,7.2,8.77
12.206920146942139,0.59,4.3,-5.22,6.78
12.217152118682861,-1.27,4.0,7.32,8.43
12.227142095565796,-0.97,-5.13,3.65,6.37
12.236982107162476,-1.13,-1.21,-8.17,8.33
12.251434087753296,-4.3,0.38,5.82,7.24
12.256978988647461,1.43,-0.22,-3.52,3.8
12.267292022705078,3.87,1.77,-3.28,5.37
12.277143955230713,2.35,6.31,-0.21,6.73
12.286971092224121,0.39,6.77,-9.06,11.31
12.301559925079346,1.76,0.67,-17.95,18.04
12.306478023529053,2.91,-5.59,1.51,6.48
12.317114114761353,-1.07,3.42,18.38,18.72
12.326609134674072,-4.36,4.87,2.26,6.91
12.336846113204956,1.73,-9.46,4.51,10.62
12.351737022399902,5.72,-4.93,-7.23,10.45
12.356149196624756,1.5,3.78,-2.01,4.53
12.367475032806396,-6.25,-5.1,0.39,8.07
12.376428127288818,-0.73,-2.63,0.0,2.72
12.38649320602417,4.49,-3.01,-3.22,6.29
12.401190042495728,0.62,1.44,6.94,7.11
12.406201124191284,-4.99,10.25,-0.83,11.43
12.417035102844238,-2.47,-4.07,-4.72,6.7
12.425755977630615,3.09,-5.88,-0.9,6.7
12.436004161834717,1.48,8.04,-3.58,8.92
12.451051235198975,-7.92,5.35,0.8,9.59
12.455632209777832,-3.83,-1.23,7.48,8.49
12.466882228851318,5.77,3.73,-1.12,6.96
12.475847244262695,2.83,-1.77,1.51,3.66
12.485912084579468,-3.6,-7.16,0.29,8.01
12.50126314163208,-0.44,0.83,-2.35,2.53
12.50531005859375,0.43,6.89,-3.15,7.58
12.517735004425049,-0.4,-4.64,10.54,11.52
12.525541067123413,2.25,-2.4,-0.85,3.39
12.535749912261963,-0.56,6.05,-5.11,7.93
12.550825119018555,-4.72,0.96,-5.72,7.47
12.555525064468384,-0.22,-4.74,2.0,5.14
12.567686080932617,4.71,1.99,-5.16,7.26
12.575334072113037,-1.96,17.04,-9.54,19.62
12.585200071334839,-2.4,-10.71,13.55,17.43
12.599757194519043,4.72,-11.44,3.92,12.98
12.604725122451782,1.76,5.26,-3.34,6.47
12.616858959197998,-6.22,0.9,-0.7,6.32
12.624969959259033,-0.34,-2.8,2.26,3.61
12.635222911834717,6.16,-4.01,0.22,7.35
12.651134967803955,-0.83,0.27,-2.7,2.83
12.654524087905884,-8.18,7.93,-4.52,12.25
12.667208194732666,-3.91,3.94,-0.76,5.6
12.674796104431152,5.34,3.55,-3.09,7.11
12.684539079666138,3.67,-5.39,-2.82,7.1
12.69911813735962,-4.25,-1.12,5.28,6.86
12.70435905456543,-2.72,-4.1,7.78,9.2
12.716944217681885,3.88,-3.29,-1.65,5.34
12.724215984344482,3.81,3.86,4.92,7.32
12.73456621170044,-1.75,1.99,0.19,2.65
12.749938011169434,-3.66,-4.05,-6.39,8.4
12.75442910194397,-0.46,2.05,-0.23,2.11
12.767599105834961,1.53,11.55,-4.32,12.42
12.774224042892456,3.45,-7.6,4.79,9.62
12.784056186676025,4.39,-5.83,1.52,7.45
12.798582077026367,-1.09,7.34,-12.85,14.83
12.803787231445312,-2.3,-2.82,-4.21,5.56
12.816951036453247,-0.2,-2.48,6.15,6.63
12.823596000671387,1.78,-2.22,-0.32,2.86
12.833775043487549,-3.51,2.81,0.04,4.49
12.848543167114258,-3.85,-0.18,2.34,4.5
12.853782176971436,1.87,3.77,7.34,8.46
12.867902040481567,4.62,1.67,-9.94,11.08
12.8733971118927,0.73,-4.39,-2.48,5.09
12.883624076843262,-2.07,-1.37,3.28,4.11
12.898287057876587,-1.97,5.74,7.75,9.84
12.903538227081299,-0.31,1.67,-2.0,2.62
12.917046070098877,0.62,-8.54,-4.1,9.49
12.923069953918457,0.05,-2.95,-7.93,8.46
12.93357801437378,-1.98,6.2,2.62,7.01
12.948194980621338,-0.26,1.88,13.72,13.85
12.952924013137817,2.38,2.67,-6.96,7.82
12.967711925506592,-0.86,-0.38,-8.06,8.11
12.972902059555054,-2.87,-5.26,8.26,10.2
12.983856201171875,0.84,1.09,-1.79,2.25
12.998305082321167,2.52,2.4,6.24,7.14
13.002827167510986,-0.62,2.24,0.71,2.43
13.017019033432007,-2.67,-6.24,-5.4,8.67
13.022487163543701,-1.78,1.99,-3.37,4.29
13.033215999603271,-1.24,3.38,9.69,10.33
13.047965049743652,2.45,4.29,-2.63,5.59
13.052609920501709,2.04,0.53,-2.83,3.52
13.06702709197998,-0.26,0.35,3.49,3.51
13.072314023971558,-1.69,3.22,-8.94,9.65
13.083540916442871,-0.9,1.57,-14.5,14.61
13.098745107650757,-1.35,0.25,-4.08,4.3
13.102322101593018,-0.01,-10.46,6.61,12.37
13.118024110794067,2.51,-6.49,6.41,9.46
13.12228012084961,-0.11,9.11,-1.13,9.18
13.13348913192749,-3.41,4.74,6.63,8.83
13.147877216339111,-0.36,-4.09,0.77,4.17
13.152005195617676,5.12,-1.82,6.88,8.76
13.16710901260376,1.04,-3.55,-6.22,7.23
13.171809196472168,-6.17,7.47,-9.18,13.34
13.183892011642456,-5.38,-0.13,-0.35,5.39
13.198363065719604,0.86,-13.53,4.69,14.34
13.201460123062134,4.9,-3.46,1.82,6.26
13.217103004455566,-1.48,11.02,-2.95,11.5
13.22135591506958,-1.37,-0.77,5.46,5.68
13.234175205230713,6.28,-7.08,5.36,10.87
13.249392986297607,4.78,3.38,3.04,6.59
13.251506090164185,-4.83,4.55,-4.42,7.97
13.267033100128174,-3.79,0.05,-0.84,3.88
13.271629095077515,2.15,3.38,-6.64,7.75
13.284073114395142,0.82,3.77,-8.69,9.5
13.299045085906982,-2.47,-5.38,-12.76,14.06
13.30095911026001,-0.87,3.6,-8.81,9.55
13.317275047302246,3.08,-2.79,14.61,15.18
13.320909976959229,3.67,-6.29,10.49,12.77
13.33389401435852,-2.05,2.23,12.8,13.15
13.349055051803589,-5.17,3.56,6.87,9.3
13.350650072097778,2.55,-0.34,-4.43,5.12
13.367753028869629,6.29,2.68,-2.95,7.44
13.370573997497559,-0.87,3.06,-11.04,11.48
13.383985996246338,-2.69,-4.26,-4.82,6.97
13.399188041687012,1.23,0.79,-6.54,6.7
13.40075397491455,1.64,-0.14,-0.32,1.67
13.417928218841553,-3.49,-2.78,-4.27,6.17
13.420706033706665,-6.18,2.01,15.18,16.51
13.433424949645996,0.1,-3.11,5.65,6.45
13.448263168334961,6.73,4.28,7.69,11.07
13.450185060501099,-1.24,5.27,-11.91,13.08
13.467822074890137,-7.44,0.45,2.52,7.86
13.47008204460144,-1.01,-9.89,-5.07,11.15
13.484393119812012,2.04,-0.32,-8.75,8.99
13.499091148376465,-2.38,4.03,-1.37,4.87
13.500437021255493,-4.03,2.79,1.15,5.03
13.518412113189697,3.72,-6.05,11.27,13.32
13.519771099090576,5.01,-2.41,-1.94,5.88
13.536655902862549,-5.06,8.03,-4.72,10.6
13.552114963531494,-6.36,1.08,11.09,12.82
13.553328037261963,1.97,-0.35,0.69,2.11
13.567344188690186,1.79,3.11,-8.4,9.13
13.569441080093384,-6.11,-2.44,-4.36,7.89
13.583007097244263,-4.84,2.82,-2.01,5.95
13.597968101501465,1.69,4.97,-0.43,5.26
13.599676132202148,3.77,-1.27,6.15,7.32
13.61774206161499,-2.92,-1.29,2.41,3.99
13.619393110275269,-8.25,3.67,-0.12,9.03
13.633120059967041,-4.43,0.73,-1.41,4.7
13.647871017456055,1.29,0.33,-4.28,4.48
13.649230003356934,0.46,1.04,-1.32,1.74
13.659282207489014,-4.3,6.06,-4.88,8.88
13.669512033462524,-4.01,3.08,-1.46,5.26
13.679028987884521,-0.68,-7.23,4.55,8.56
13.693916082382202,0.69,-1.1,5.79,5.93
13.699579238891602,-1.83,0.1,0.04,1.83
13.709219932556152,-0.61,-7.41,7.81,10.78
13.719068050384521,0.28,0.26,0.76,0.85
13.72899603843689,-3.25,2.77,-5.93,7.3
13.74449610710144,-2.78,1.13,0.15,3.0
13.750059127807617,1.76,2.96,2.32,4.15
13.758708953857422,1.69,5.65,-4.0,7.12
13.768822193145752,-4.71,-3.22,-2.83,6.36
13.778655052185059,-4.11,-2.51,-0.9,4.89
13.794596195220947,1.11,-1.43,3.03,3.52
13.798532009124756,2.94,-7.54,-0.95,8.14
13.808419227600098,-0.04,2.22,-3.71,4.32
13.818387031555176,-0.87,-0.9,-3.45,3.67
13.828066110610962,2.45,-3.53,0.53,4.32
13.84351396560669,1.51,4.1,3.53,5.61
13.848802089691162,-5.01,3.07,1.38,6.03
13.858466148376465,-5.19,4.52,7.67,10.3
13.868595123291016,2.54,0.2,-2.7,3.71
13.878359079360962,3.89,-5.3,-8.65,10.86
13.89372706413269,-1.23,-8.83,10.95,14.12
13.89774203300476,-5.86,4.89,13.1,15.16
13.907966136932373,-4.25,10.88,1.53,11.78
13.917768001556396,1.91,-10.71,2.34,11.12
13.927512168884277,4.52,1.85,-16.75,17.44
13.942711114883423,2.55,5.74,-15.54,16.76
13.94766902923584,-1.01,0.47,-10.06,10.12
13.957455158233643,-2.93,7.66,-5.11,9.66
13.968370914459229,-4.26,-2.2,-0.96,4.88
13.977571964263916,-0.08,-10.73,22.63,25.04
13.992924213409424,3.16,-2.39,3.63,5.37
13.997920989990234,1.17,13.36,-4.3,14.08
14.007387161254883,4.47,-4.44,-2.55,6.79
14.017434120178223,6.2,-6.12,-11.73,14.61
14.026947021484375,-3.7,-0.21,-0.04,3.7
14.042654037475586,-9.15,-4.53,8.78,13.46
14.047129154205322,-5.04,-8.75,14.39,17.57
14.057127952575684,-1.01,-1.54,10.45,10.61
14.067248106002808,1.51,5.74,-4.46,7.42
14.07732605934143,-0.63,-3.03,-9.47,9.96
14.092777013778687,-1.95,0.46,1.85,2.72
14.096978187561035,-2.23,6.36,-4.76,8.25
14.10682201385498,-0.81,2.71,-9.65,10.05
14.117273092269897,2.66,-7.73,14.27,16.44
14.126401901245117,3.35,-3.58,-4.21,6.46
14.141642093658447,-1.39,9.46,-7.32,12.04
14.146518230438232,-2.12,-5.49,15.54,16.61
14.15657091140747,2.88,8.98,-5.08,10.71
14.166843891143799,1.43,5.51,-10.41,11.86
14.176441192626953,0.51,-3.91,-2.39,4.61
14.192114114761353,1.95,0.16,5.06,5.42
14.196064949035645,2.47,-2.69,1.42,3.91
14.206683158874512,-0.47,-2.74,1.25,3.04
14.216464042663574,-3.05,1.74,4.33,5.57
14.226128101348877,-0.21,-4.49,-0.21,4.49
14.241127014160156,3.13,2.25,-2.31,4.49
14.245997905731201,-1.18,8.61,-7.71,11.61
14.25583791732788,-3.91,1.14,-2.08,4.57
14.266676902770996,-2.12,-1.94,3.77,4.74
14.275901079177856,0.55,-5.49,-0.34,5.52
14.29124903678894,-0.67,-0.12,-4.26,4.31
14.295834064483643,-1.44,2.7,7.94,8.5
14.30593490600586,0.73,-2.7,4.26,5.09
14.316243171691895,2.34,-3.66,-4.99,6.61
14.325716972351074,-2.47,-1.45,2.01,3.49
14.341297149658203,-3.7,6.09,0.93,7.18
14.345294952392578,4.44,-0.52,-2.09,4.93
14.355259895324707,6.89,-7.32,-2.34,10.32
14.366138935089111,-2.99,1.34,0.16,3.28
14.375339984893799,-8.89,4.56,-4.47,10.94
14.390903949737549,-0.93,0.85,7.06,7.17
14.394983053207397,4.18,-3.17,0.8,5.3
14.405078887939453,0.57,0.44,-2.22,2.33
14.41523003578186,-3.9,2.95,-2.91,5.69
14.425467014312744,-0.43,9.09,-0.86,9.14
14.441746234893799,1.01,-2.05,-6.18,6.58
14.445199966430664,-2.84,-1.57,2.11,3.87
14.455243110656738,-6.85,-3.6,5.14,9.28
14.465299129486084,0.55,-5.64,3.0,6.41
14.474459171295166,4.12,1.93,1.67,4.84
14.490333080291748,2.15,4.36,4.18,6.41
14.494384050369263,1.06,-1.72,-6.53,6.83
14.504887104034424,1.58,-2.41,-4.71,5.52
14.515484094619751,1.26,2.12,-2.32,3.38
14.524385929107666,-0.86,5.65,-3.31,6.6
14.540503978729248,-0.76,-5.1,1.59,5.39
14.544297218322754,1.93,-2.74,3.51,4.85
14.554665088653564,1.48,-7.11,5.27,8.97
14.564441204071045,-1.45,1.95,1.17,2.69
14.574714183807373,-2.24,2.49,1.59,3.7
14.59078598022461,0.67,5.49,-4.73,7.27
14.594151973724365,2.89,0.4,0.21,2.92
14.60404920578003,-0.65,-0.73,-8.8,8.85
14.613987922668457,-2.81,1.97,-3.51,4.9
14.623757123947144,-0.42,-1.79,0.43,1.88
14.639688968658447,2.1,-0.82,0.6,2.33
14.643583059310913,-0.31,3.07,-2.13,3.74
14.653810024261475,-1.53,0.35,0.2,1.58
14.663863182067871,0.28,-5.74,6.04,8.33
14.673728942871094,1.12,-1.22,3.39,3.77
14.689162015914917,-3.11,7.29,1.32,8.03
14.693209171295166,-1.79,1.41,0.84,2.42
14.703784942626953,4.12,-2.7,0.65,4.96
14.713412046432495,2.68,-4.16,-4.29,6.54
14.72322702407837,-4.01,8.24,-7.7,11.96
14.739190101623535,-2.39,-3.65,3.2,5.41
14.743113040924072,5.6,-3.48,-0.27,6.59
14.753159046173096,3.24,-0.01,5.34,6.24
14.76328706741333,-4.35,4.81,0.48,6.5
14.77322506904602,-1.67,-7.14,11.65,13.76
14.790112018585205,4.18,0.91,7.36,8.51
14.793039083480835,-0.6,4.93,-3.28,5.95
14.803091049194336,-2.73,1.6,-11.29,11.72
14.81301498413086,1.29,-3.33,-2.26,4.22
14.822719097137451,4.94,-1.26,-5.03,7.16
14.838309049606323,-0.79,7.33,-7.6,10.58
14.84251594543457,-4.17,0.68,-5.09,6.61
14.852612972259521,0.58,-12.12,0.16,12.13
14.862497091293335,6.02,2.19,-1.24,6.52
14.872822046279907,1.07,5.01,5.13,7.24
14.889091968536377,-2.78,1.12,-3.0,4.24
14.892129898071289,-0.05,-1.46,7.61,7.74
14.902599096298218,3.46,-5.57,4.5,7.95
14.912405967712402,-0.04,5.54,-5.56,7.84
14.922504901885986,-1.74,-3.86,5.66,7.06
14.938540935516357,1.32,3.45,-3.55,5.12
14.942292213439941,0.85,-2.11,3.79,4.42
14.952210903167725,-1.89,-6.29,10.74,12.58
14.962477207183838,-0.93,8.07,-1.46,8.25
14.972170114517212,0.66,0.42,-4.36,4.42
14.987881183624268,0.64,-0.94,0.54,1.25
14.991671085357666,-0.27,4.15,-10.85,11.61
15.001852035522461,-3.0,1.0,-10.07,10.55
15.011701107025146,-2.44,0.38,1.51,2.89
15.021661043167114,2.45,3.39,1.81,4.55
15.037138938903809,3.31,0.8,0.13,3.4
15.04144811630249,-1.0,-5.81,5.32,7.94
15.051980972290039,-1.8,-4.96,8.52,10.02
15.061498165130615,-0.69,2.44,0.49,2.58
15.07188105583191,-2.93,1.85,-2.93,4.53
15.087892055511475,-1.78,2.69,-3.93,5.08
15.091320037841797,2.15,1.67,-6.22,6.78
15.101838111877441,4.59,0.68,-4.78,6.66
15.11120319366455,0.25,-0.67,-0.56,0.9
15.12139892578125,-4.81,1.99,5.66,7.68
15.13720989227295,-3.76,0.43,3.3,5.02
15.140851020812988,1.4,-6.79,7.27,10.04
15.151598930358887,3.16,-4.15,1.53,5.43
15.161252975463867,-2.81,4.74,-4.92,7.38
15.170995235443115,-4.73,1.83,6.22,8.02
15.186517238616943,2.01,6.28,2.93,7.21
15.190718173980713,3.28,-3.82,-5.7,7.6
15.20206904411316,-0.83,1.6,-1.01,2.06
15.21074104309082,-1.64,7.4,-0.06,7.57
15.220788955688477,0.23,-6.31,-2.04,6.63
15.236501216888428,3.17,-3.87,-12.75,13.69
15.24059009552002,1.41,-5.49,-10.4,11.84
15.251745223999023,1.11,5.8,11.33,12.77
15.26038122177124,0.9,-1.51,0.7,1.89
15.270933151245117,-0.21,-2.52,9.07,9.41
15.287217140197754,-3.57,-2.53,2.84,5.21
15.290497064590454,-0.47,5.86,-2.13,6.25
15.302325010299683,4.35,2.21,-12.89,13.78
15.31014609336853,7.15,-3.12,0.56,7.82
15.320245027542114,1.54,-6.0,1.81,6.45
15.336658000946045,-6.14,7.51,-7.42,12.21
15.339755058288574,-4.91,3.29,-2.86,6.56
15.352394104003906,4.9,-8.1,8.02,12.4
15.360016107559204,8.01,-0.68,7.79,11.19
15.369753122329712,-3.88,1.37,2.54,4.83
15.385201930999756,-6.22,3.91,0.62,7.37
15.389514923095703,0.53,0.68,-6.96,7.01
15.401915073394775,2.76,-0.04,-9.11,9.51
15.40971302986145,-3.37,-1.95,-3.94,5.53
15.419974088668823,-2.89,-5.65,2.76,6.92
15.436115026473999,4.43,3.22,3.2,6.34
15.439731121063232,8.09,-0.99,11.71,14.26
15.451364040374756,3.03,2.28,0.59,3.83
15.459410190582275,-3.65,0.48,-5.18,6.35
15.469342231750488,-1.84,0.91,1.29,2.42
15.484774112701416,1.83,-0.92,-0.61,2.13
15.488928079605103,0.76,1.28,2.25,2.69
15.503917217254639,-0.51,-4.8,17.49,18.14
15.508937120437622,1.67,-1.83,-3.4,4.2
15.518967151641846,0.15,6.0,-4.53,7.51
15.534624099731445,-0.47,-1.45,-2.73,3.12
15.538876056671143,1.53,2.23,0.29,2.71
15.55263900756836,0.25,-0.69,-4.34,4.4
15.558877944946289,-5.36,7.96,-7.65,12.27
15.568965911865234,-3.7,2.52,-13.77,14.47
15.584679126739502,3.84,-3.43,-12.65,13.65
15.588511943817139,5.13,-8.49,3.89,10.65
15.60137414932251,-2.55,-2.14,29.68,29.86
15.608282089233398,-2.83,14.45,0.11,14.72
15.618659973144531,1.37,2.32,-9.14,9.52
15.63448190689087,1.9,-9.27,-7.48,12.06
15.638174057006836,2.4,3.85,-13.9,14.62
15.651128053665161,-1.35,-8.46,-10.67,13.68
15.658343076705933,-2.58,-6.59,17.23,18.62
15.668265104293823,1.45,-8.08,28.99,30.12
15.68358302116394,2.73,6.27,10.51,12.53
15.687950134277344,-3.51,7.33,-3.66,8.91
15.698421001434326,1.14,-3.27,-4.48,5.66
15.708096027374268,6.0,3.08,-17.62,18.86
15.71806812286377,1.21,3.35,-6.23,7.17
15.734425067901611,-6.28,6.86,-10.04,13.68
15.737810134887695,-6.0,-12.71,14.66,20.3
15.752300024032593,3.1,-5.15,-2.46,6.49
15.757538080215454,3.67,7.51,3.41,9.02
15.768275022506714,-2.78,2.29,4.53,5.78
15.78355598449707,-1.61,3.32,-4.97,6.18
15.78758716583252,0.74,6.49,-17.8,18.96
15.802448034286499,-0.13,4.47,-10.08,11.02
15.80760407447815,-0.23,-2.0,9.05,9.27
15.81859016418457,2.47,-8.13,10.57,13.56
15.834226131439209,-2.01,-1.22,0.53,2.41
15.837018013000488,-5.9,-5.51,8.31,11.58
15.851722240447998,1.62,-8.91,7.45,11.72
15.857017040252686,3.83,2.36,-3.31,5.58
15.868185997009277,-2.68,5.94,3.75,7.51
15.88415813446045,-0.59,3.65,-10.2,10.84
15.88669490814209,2.33,-1.75,-11.33,11.69
15.901401042938232,0.31,5.14,-5.06,7.21
15.90662407875061,-1.64,3.75,4.68,6.21
15.918421030044556,1.52,-4.65,5.1,7.06
15.934400081634521,0.97,8.35,0.9,8.45
15.936776161193848,-1.02,-2.5,-4.07,4.88
15.951406002044678,-1.41,1.73,-7.75,8.06
15.956451892852783,-0.18,-0.78,11.38,11.4
15.968194961547852,0.36,-5.8,4.05,7.08
15.983633995056152,-2.41,-2.33,1.36,3.61
15.986211061477661,-1.96,-4.16,7.57,8.85
16.001543045043945,4.75,3.51,-2.63,6.46
16.006414890289307,6.08,-6.7,-5.58,10.62
16.01893901824951,1.29,0.5,-1.72,2.2
16.03522491455078,-2.96,2.12,-2.06,4.18
16.036438941955566,-0.15,2.89,-3.36,4.43
16.05136013031006,3.46,0.05,3.28,4.76
16.055989027023315,1.34,0.76,-6.11,6.3
16.068047046661377,-4.9,0.39,3.2,5.86
16.083621978759766,-0.95,-4.25,10.17,11.06
16.085652112960815,5.36,6.0,-8.34,11.58
16.10102605819702,1.97,-1.26,-8.03,8.36
16.105605125427246,-2.71,4.15,-1.55,5.19
16.11870288848877,-2.77,2.13,8.12,8.83
16.135107040405273,-2.03,-3.22,-5.05,6.32
16.136303901672363,-1.6,2.78,3.8,4.97
16.152274131774902,1.51,-8.61,7.71,11.65
16.155734062194824,0.66,4.21,2.48,4.93
16.1683931350708,-3.4,0.5,-5.74,6.69
16.183856964111328,0.24,2.97,-19.96,20.18
16.185166120529175,2.39,-5.7,11.26,12.84
16.202064037322998,2.58,-2.1,-12.71,13.13
16.204936981201172,-2.34,6.5,6.74,9.65
16.217761993408203,-4.19,-5.04,10.15,12.08
16.233782052993774,1.75,-4.47,14.85,15.6
16.23504400253296,6.78,5.12,-3.33,9.12
16.251598119735718,4.0,4.09,-3.23,6.56
16.254855155944824,0.43,1.09,-2.24,2.52
16.268632888793945,-3.51,-1.87,-8.81,9.66
16.285075187683105,-1.6,4.03,-13.18,13.87
16.286293029785156,0.76,7.79,-12.75,14.96
16.302123069763184,2.41,-14.8,8.86,17.41
16.30470609664917,1.3,-7.84,5.81,9.84
16.31786298751831,-2.29,9.75,8.73,13.28
16.333577156066895,-3.98,-4.08,9.8,11.33
16.33470916748047,2.37,4.89,-2.49,5.97
16.351655960083008,4.93,-0.99,-11.73,12.76
16.35413908958435,1.03,-1.2,-2.25,2.75
16.368096113204956,-3.58,4.8,-2.4,6.45
16.384305953979492,0.29,-0.59,7.45,7.47
16.385411024093628,4.3,-8.25,3.48,9.93
16.401473999023438,-0.62,1.38,-4.87,5.09
16.403839111328125,-4.35,7.41,2.71,9.0
16.417943000793457,2.21,-6.82,7.42,10.31
16.43396306037903,3.8,2.5,-3.66,5.83
16.435150146484375,-5.54,5.8,-8.65,11.79
16.452041149139404,-4.62,-3.34,9.39,10.98
16.453936100006104,5.14,-2.18,0.09,5.58
16.467843055725098,2.72,-3.4,-1.0,4.46
16.48503017425537,-5.06,12.17,3.42,13.61
16.486114025115967,-1.39,-3.12,2.03,3.97
16.502137184143066,4.02,-5.22,-10.42,12.32
16.50338315963745,-2.04,5.71,-7.31,9.49
16.517738103866577,-8.19,-4.21,1.5,9.33
16.533751010894775,-4.33,9.09,1.63,10.19
16.535025119781494,2.57,-1.68,2.62,4.03
16.55262303352356,5.88,-5.43,-2.93,8.52
16.55357313156128,0.37,11.18,-8.3,13.92
16.569372177124023,-1.09,5.71,4.43,7.3
16.58589220046997,2.67,-10.72,3.45,11.57
16.587095022201538,0.36,4.45,2.46,5.09
16.602322101593018,-5.4,1.06,10.08,11.48
16.60327410697937,2.26,-9.21,2.62,9.83
16.61915397644043,8.2,-3.84,-8.48,12.4
16.63550305366516,0.01,-0.06,-3.33,3.33
16.636719226837158,-6.01,13.29,6.17,15.83
16.65256905555725,-2.67,0.12,-14.18,14.42
16.653503894805908,-0.42,-0.11,-14.87,14.87
16.668293952941895,0.47,0.53,-7.04,7.07
16.68405818939209,-1.74,-9.09,13.46,16.33
16.685333013534546,0.02,9.42,17.27,19.67
16.702414989471436,0.74,-3.19,1.92,3.79
16.703347206115723,1.39,-3.38,-1.18,3.84
16.718008041381836,0.99,9.19,-6.25,11.15
16.734575033187866,1.99,-1.98,-8.25,8.71
16.73567819595337,-0.66,-4.59,-8.49,9.67
16.75241208076477,-3.73,0.71,7.64,8.53
16.753353118896484,-1.71,-0.26,5.58,5.84
16.768589973449707,3.92,-3.33,5.29,7.37
16.78500509262085,3.77,0.35,-4.94,6.22
16.786212921142578,0.2,10.32,-10.07,14.42
16.80235719680786,-1.07,-1.83,2.01,2.92
16.80329418182373,-0.45,-5.23,-6.35,8.23
16.819619178771973,-1.78,8.49,-6.12,10.61
16.836809158325195,-2.49,1.27,9.2,9.61
16.83800220489502,0.28,-10.7,13.05,16.87
16.852827072143555,2.94,1.57,1.88,3.82
16.8537540435791,1.93,5.8,-2.3,6.53
16.86809492111206,1.5,-0.65,0.08,1.63
16.883862018585205,-0.17,1.65,-3.47,3.84
16.88510513305664,-2.85,4.58,-9.07,10.55
16.902016162872314,-3.93,1.62,-6.6,7.85
16.902942180633545,0.32,-1.49,0.74,1.69
16.918464183807373,2.91,-2.68,4.78,6.2
16.934652090072632,0.24,-6.2,11.04,12.66
16.935858011245728,-2.69,-0.59,3.3,4.29
16.952095985412598,0.54,2.41,1.71,3.0
16.953030109405518,2.91,-1.87,3.84,5.16
16.96889591217041,-0.57,-0.47,-10.95,10.97
16.986660957336426,-4.57,2.0,-13.51,14.4
16.98786497116089,-1.12,-1.39,10.51,10.66
17.00257921218872,4.55,0.3,-1.53,4.8
17.003520011901855,3.28,3.5,2.7,5.5
17.018421173095703,-3.33,1.85,-0.79,3.89
17.034459114074707,-3.41,6.38,-8.71,11.32
17.035645008087158,0.88,-5.46,-4.62,7.2
17.051781177520752,3.55,-8.64,1.12,9.4
17.052720069885254,-0.38,1.6,5.32,5.56
17.06828022003174,-2.26,5.13,9.97,11.43
17.085740089416504,1.4,0.87,2.23,2.77
17.086940050125122,3.72,-3.18,-11.75,12.72
17.102803230285645,4.41,-4.99,-0.8,6.7
17.103750228881836,-0.16,7.53,0.39,7.54
17.11905813217163,-6.31,1.43,1.73,6.69
17.135656118392944,-2.96,-5.5,-2.07,6.58
17.136842012405396,2.92,-1.57,-1.83,3.78
17.15253496170044,1.67,-2.88,9.95,10.49
17.153460025787354,-3.43,2.35,1.78,4.52
17.16843605041504,-2.21,10.74,-3.13,11.4
17.18468189239502,1.34,-3.67,1.81,4.3
17.185885906219482,2.57,0.72,-2.12,3.4
17.20215606689453,-0.33,-4.92,-6.88,8.46
17.20320200920105,0.81,4.97,-6.91,8.55
17.218905925750732,2.6,-2.65,-8.85,9.59
17.235852241516113,2.96,-9.05,8.07,12.48
17.237060070037842,0.21,1.18,6.57,6.67
17.252671241760254,-3.56,3.08,4.39,6.43
17.25360608100891,-2.4,8.4,0.78,8.77
17.268534183502197,3.55,0.44,-2.46,4.34
17.284701108932495,4.17,-3.39,-3.22,6.26
17.285961151123047,-0.35,0.83,6.69,6.75
17.301988124847412,-2.69,2.65,-5.23,6.45
17.303093910217285,1.01,2.58,-6.98,7.5
17.318429946899414,2.3,-9.47,4.17,10.59
17.335374116897583,1.95,-2.43,4.56,5.52
17.336560010910034,-5.1,9.02,-8.57,13.44
17.352128982543945,-5.61,9.98,-6.09,12.96
17.35310411453247,-1.27,-4.98,-12.85,13.83
17.368988037109375,4.29,-7.72,7.49,11.58
17.38545513153076,2.66,-1.02,7.76,8.26
17.38666009902954,-3.32,9.96,7.22,12.74
17.40201997756958,-4.58,-1.63,4.15,6.39
17.40315818786621,1.81,-0.48,-0.81,2.04
17.418715000152588,3.25,1.76,-6.76,7.7
17.434802055358887,-0.61,-0.36,-0.31,0.77
17.435987949371338,-1.9,2.97,0.54,3.56
17.453503131866455,0.79,-2.12,3.87,4.48
17.454522132873535,0.61,-3.79,8.12,8.98
17.47120189666748,-3.08,7.09,-4.19,8.79
17.488056182861328,-2.12,0.27,2.54,3.31
17.489293098449707,0.44,-2.34,-4.64,5.21
17.502876043319702,-0.01,6.43,-10.88,12.63
17.503861904144287,-3.31,2.84,-15.56,16.15
17.51878809928894,-3.32,-3.53,-6.05,7.75
17.53502893447876,-0.72,5.13,6.71,8.47
17.53644323348999,6.09,-4.59,13.49,15.49
17.553527116775513,3.98,-5.71,0.43,6.97
17.55445623397827,-4.26,6.54,-6.07,9.88
17.56889510154724,-5.37,-0.9,-5.42,7.68
17.585055112838745,0.93,3.29,4.7,5.81
17.58635711669922,3.49,-4.55,5.78,8.14
17.602967023849487,-0.07,-5.28,4.52,6.95
17.6038920879364,-2.47,7.34,-6.08,9.84
17.619019985198975,-0.11,0.94,-1.11,1.45
17.635969161987305,2.92,-2.01,1.04,3.69
17.637253046035767,1.76,-0.57,0.65,1.96
17.65246820449829,-4.23,-2.3,-2.13,5.26
17.65342617034912,-4.74,5.28,-1.7,7.29
17.6688232421875,-1.11,2.74,-4.23,5.16
17.684679985046387,1.27,3.67,-2.14,4.43
17.68598699569702,0.86,-2.27,11.25,11.5
17.70268201828003,1.94,0.64,-5.27,5.65
17.703638076782227,2.33,2.95,-2.48,4.5
17.718695163726807,2.81,-6.38,-1.47,7.12
17.735871076583862,0.0,-4.99,-1.95,5.35
17.737049102783203,-3.19,3.6,0.77,4.87
17.752376079559326,-2.9,-1.82,-0.54,3.46
17.753343105316162,1.24,-1.46,8.6,8.81
17.768428087234497,4.14,-6.19,4.48,8.69
17.784523010253906,-0.68,2.45,-6.23,6.72
17.78575897216797,-0.49,6.96,6.14,9.29
17.802781105041504,4.65,-4.03,-10.14,11.86
17.803754091262817,4.3,0.28,-4.98,6.58
17.818461894989014,-2.08,1.07,3.17,3.93
17.83516216278076,-3.95,2.24,-2.75,5.3
17.836466073989868,-1.01,-5.43,-0.23,5.52
17.853501081466675,1.39,3.37,0.77,3.72
17.85445809364319,1.05,2.21,-0.67,2.53
17.8693950176239,-0.85,5.54,0.14,5.6
17.88609504699707,1.64,-6.25,7.67,10.02
17.887365102767944,4.86,-9.92,-2.54,11.33
17.902624130249023,2.17,6.13,-3.03,7.17
17.903593063354492,-0.89,-5.42,22.11,22.78
17.918642044067383,0.61,10.85,4.24,11.66
17.935026168823242,1.82,-5.18,-11.98,13.17
17.936285972595215,1.63,-8.32,-5.9,10.32
17.952518939971924,-4.09,11.67,3.56,12.86
17.9534649848938,-5.19,5.67,-10.69,13.16
17.969659090042114,0.17,-1.27,-10.67,10.74
17.98696208000183,2.98,-7.25,-9.24,12.11
17.988193035125732,2.7,4.31,-0.35,5.09
18.002899169921875,-3.15,2.21,5.18,6.45
18.00386905670166,-3.17,0.86,22.18,22.42
18.018839120864868,-1.24,2.3,6.93,7.4
18.03498911857605,0.45,0.46,-5.34,5.37
18.036200046539307,3.0,-7.81,-8.53,11.94
18.052627086639404,3.81,2.26,-1.4,4.64
18.05359411239624,0.71,3.53,-6.8,7.69
18.069570064544678,-1.53,1.4,-4.53,4.98
18.085989952087402,-3.57,1.16,-5.83,6.93
18.087239027023315,0.01,-4.88,12.87,13.76
18.103506088256836,5.01,2.04,12.52,13.63
18.104499101638794,1.66,9.26,-7.09,11.78
18.118446111679077,-0.98,-2.7,2.6,3.87
18.134857177734375,6.23,-7.09,-4.06,10.27
18.136154174804688,5.8,-3.38,-10.62,12.56
18.15192222595215,-3.96,5.11,-3.32,7.26
18.15294313430786,-8.67,9.85,0.32,13.12
18.169286012649536,-3.66,-0.76,2.63,4.57
18.186496019363403,5.18,-6.36,3.35,8.86
18.187735080718994,3.39,2.79,5.67,7.17
18.203344106674194,-7.57,5.53,-4.37,10.34
18.204315185546875,-5.93,0.04,2.22,6.33
18.21831703186035,3.79,0.8,-4.98,6.3
18.235247135162354,7.55,1.79,-9.15,11.99
18.236573219299316,-3.31,-6.71,-6.23,9.73
18.25211501121521,-8.48,4.13,5.3,10.81
18.253111124038696,-0.09,3.66,10.54,11.15
18.268490076065063,6.52,-1.21,5.95,8.9
18.285117149353027,-1.83,5.93,-8.53,10.54
18.286334991455078,-4.8,3.42,-2.16,6.27
18.303179025650024,1.41,-7.33,-1.86,7.69
18.304139137268066,5.76,3.9,-4.92,8.52
18.318376064300537,-2.68,0.6,-0.13,2.74
18.335011959075928,-6.68,-5.59,5.17,10.12
18.336254119873047,-0.72,5.26,8.39,9.92
18.352381229400635,6.16,2.03,2.3,6.88
18.353364944458008,4.16,-5.85,-2.38,7.56
18.36912703514099,0.82,-2.53,6.88,7.37
18.386362075805664,-1.8,8.23,-6.34,10.54
18.38763189315796,-0.41,-1.3,-7.6,7.72
18.40331506729126,-0.96,-7.39,-3.86,8.39
18.404309034347534,-1.48,4.26,-9.63,10.63
18.419048070907593,-3.29,6.87,-5.34,9.3
18.435476064682007,-1.11,-4.85,15.52,16.29
18.43668508529663,3.6,-9.02,6.7,11.79
18.455039978027344,1.3,3.3,-1.75,3.95
18.45598602294922,-0.69,6.2,0.29,6.24
18.469075202941895,0.81,3.38,-7.19,7.98
18.485743045806885,1.69,-2.75,-16.54,16.85
18.48700189590454,-1.62,-8.6,-8.41,12.13
18.503129959106445,-1.0,0.58,-2.08,2.37
18.504106998443604,2.44,-0.47,24.78,24.9
18.518640995025635,2.51,-0.52,13.51,13.75
18.534829139709473,-1.85,0.45,-3.37,3.87
18.536063194274902,2.15,-0.2,2.21,3.08
18.55377197265625,5.68,0.93,-4.89,7.55
18.554830074310303,-0.59,-1.07,-8.44,8.52
18.57061195373535,-6.9,-0.11,1.39,7.03
18.5883469581604,-1.89,3.63,4.64,6.18
18.589555025100708,4.84,-3.84,1.02,6.26
18.60671091079712,2.7,-6.92,0.47,7.44
18.60767889022827,-2.43,8.77,-7.48,11.77
18.619236946105957,-2.35,-0.55,3.8,4.5
18.635971069335938,2.87,-2.43,0.0,3.76
18.637301921844482,2.23,4.06,-7.12,8.49
18.652946949005127,-0.78,0.61,4.99,5.08
18.653972148895264,-0.51,2.49,3.29,4.15
18.66947102546692,2.3,3.27,3.13,5.07
18.686567068099976,3.14,1.33,-13.29,13.72
18.687873125076294,1.93,-3.97,3.58,5.68
18.703388214111328,-0.44,-1.25,1.83,2.25
18.70435905456543,-0.79,7.45,-5.72,9.42
18.718935012817383,1.32,-0.27,-5.05,5.22
18.735992908477783,3.29,2.49,-5.09,6.55
18.737251043319702,1.29,-5.88,5.4,8.08
18.753007888793945,-1.56,5.2,3.98,6.73
18.753973960876465,-1.11,2.74,-0.96,3.1
18.76956796646118,3.09,-7.14,8.23,11.32
18.786860942840576,4.19,-8.69,1.34,9.74
18.788093090057373,-1.28,-3.81,-2.07,4.52
18.80275297164917,-5.63,13.6,-1.56,14.8
18.803882122039795,-3.63,6.7,1.17,7.7
18.819239139556885,0.66,-16.2,7.78,17.98
18.835955142974854,5.72,4.21,-3.21,7.79
18.837229013442993,2.29,8.31,-4.92,9.92
18.852220058441162,-4.54,1.51,-7.29,8.71
18.853421211242676,-6.99,0.49,-13.45,15.16
18.869888067245483,6.12,-16.27,5.85,18.34
18.887655019760132,14.32,1.93,9.1,17.07
18.888872146606445,2.46,5.75,-4.46,7.68
18.90339994430542,-11.12,6.76,9.07,15.86
18.904405117034912,-3.87,-1.41,-13.42,14.03
18.919060230255127,0.18,-1.84,13.19,13.31
18.93575096130371,1.51,6.65,1.29,6.94
18.937021017074585,-0.77,4.6,-4.52,6.49
18.953033924102783,1.01,-5.66,4.32,7.19
18.954001903533936,2.02,0.65,-7.01,7.32
18.96968698501587,-1.56,5.3,-6.8,8.76
18.98771619796753,-5.53,-7.32,1.57,9.3
18.988965034484863,-1.47,5.27,-9.08,10.6
19.003164052963257,0.41,-0.83,9.64,9.68
19.00420904159546,3.09,6.12,-1.9,7.11
19.020159006118774,0.08,-4.48,-5.56,7.14
19.03668212890625,0.49,-10.53,8.86,13.77
19.03794503211975,-2.19,15.99,-1.78,16.23
19.053540229797363,-6.34,2.99,7.16,10.02
19.054550170898438,-0.25,-2.0,-3.79,4.29
19.07063913345337,4.34,0.48,-10.35,11.23
19.087759017944336,-3.0,3.64,-2.95,5.56
19.089043140411377,-4.3,-4.09,2.13,6.3
19.103960037231445,1.55,1.47,-8.37,8.63
19.10497212409973,3.31,3.46,10.05,11.13
19.119385242462158,-2.03,-3.87,-3.33,5.49
19.136325120925903,-6.93,6.87,6.85,11.92
19.137489080429077,-3.68,-6.54,3.69,8.36
19.15320920944214,1.97,-1.96,-6.98,7.51
19.1541690826416,0.23,-6.78,10.89,12.83
19.170825958251953,-0.93,4.16,6.51,7.78
19.188290119171143,0.25,11.22,-4.7,12.16
19.18952703475952,-0.03,-7.5,-1.17,7.59
19.203344106674194,-0.03,0.88,-12.22,12.25
19.204243183135986,-2.51,6.74,-17.67,19.07
19.21940302848816,-4.25,-11.02,22.43,25.34
19.23621892929077,1.6,-0.17,2.51,2.98
19.237497091293335,-1.42,6.3,2.63,6.97
19.25278401374817,-2.03,0.12,22.33,22.42
19.253929138183594,3.49,2.2,-11.43,12.15
19.269501209259033,5.32,-6.25,-18.3,20.05
19.286240100860596,-0.13,8.91,-15.14,17.56
19.287512063980103,-1.99,6.31,-7.26,9.82
19.303404092788696,-3.71,-7.74,-10.26,13.37
19.30437207221985,-4.31,-5.31,1.49,6.99
19.31938600540161,1.3,-1.68,14.89,15.04
19.335803985595703,5.43,-7.65,24.59,26.31
19.33703088760376,0.93,10.26,5.93,11.88
19.3530330657959,-7.41,11.74,-22.65,26.56
19.354013919830322,-0.67,-8.58,-0.49,8.62
19.369344234466553,2.96,-17.65,14.33,22.92
19.38658618927002,5.04,9.54,-19.33,22.13
19.387805938720703,-1.69,-3.23,12.54,13.05
19.403693199157715,-5.35,-6.1,7.46,11.02
19.404643058776855,5.09,2.65,-0.97,5.81
19.41900110244751,3.13,-6.07,-23.65,24.61
19.436738967895508,-1.09,-0.77,-18.96,19.0
19.438016891479492,-6.12,4.5,14.3,16.19
19.453251123428345,-2.47,9.82,27.81,29.59
19.454216957092285,5.08,6.76,-1.65,8.61
19.469134092330933,-0.86,-2.44,-2.73,3.76
19.48621106147766,-2.79,-1.6,-14.88,15.22
19.487473964691162,4.81,-5.43,-3.55,8.07
19.50365114212036,9.67,1.45,-5.93,11.43
19.50462508201599,-0.11,13.06,5.41,14.13
19.518940925598145,-12.38,-2.17,17.04,21.17
19.536075115203857,-9.07,-5.64,-7.73,13.18
19.537353038787842,5.47,10.38,-6.91,13.61
19.552846908569336,13.39,-4.92,-5.38,15.24
19.5538170337677,4.21,-2.5,-5.16,7.11
19.56924605369568,-7.92,-1.64,7.49,11.02
19.586048126220703,-6.69,-7.0,7.5,12.24
19.587253093719482,2.29,1.99,-6.24,6.93
19.604337215423584,1.73,8.93,-6.61,11.24
19.605412006378174,-0.88,1.02,15.25,15.3
19.620107173919678,1.39,-4.57,2.2,5.25
19.637233018875122,2.86,-2.98,-8.85,9.76
19.63848114013672,-0.89,5.81,-1.62,6.09
19.65413808822632,-3.07,-2.83,0.39,4.19
19.655216217041016,-0.55,-3.43,2.12,4.06
19.67029905319214,-1.99,1.42,-4.61,5.21
19.687060117721558,-2.66,0.82,3.15,4.2
19.688304901123047,1.0,5.92,-11.22,12.72
19.703537940979004,4.44,1.11,-3.07,5.51
19.704490184783936,0.31,2.06,12.92,13.08
19.719568014144897,-2.96,0.1,-1.9,3.51
19.7366042137146,-1.56,3.8,-6.22,7.45
19.737863063812256,2.97,-1.7,15.02,15.4
19.7536039352417,4.14,0.99,-1.03,4.37
19.754589080810547,-2.59,1.02,-15.39,15.63
19.769408226013184,-3.09,2.73,6.18,7.42
19.786396980285645,4.07,-6.94,-3.64,8.83
19.787658214569092,3.3,-2.96,-13.65,14.35
19.804173946380615,-5.65,0.75,8.85,10.52
19.805164098739624,-8.86,0.5,12.04,14.95
19.819749116897583,1.42,0.11,1.11,1.8
19.836440086364746,7.4,-6.02,-9.26,13.29
19.837687015533447,2.46,2.37,-4.95,6.01
19.85313105583191,-5.46,8.82,2.36,10.63
19.85408592224121,-2.44,-0.56,3.9,4.63
19.869749069213867,-0.22,-1.04,-2.46,2.67
19.88647699356079,-0.71,0.25,7.39,7.42
19.88763403892517,0.12,-3.8,8.96,9.73
19.904715061187744,1.89,-0.76,-1.28,2.4
19.905729055404663,0.44,-0.14,-10.57,10.58
19.92099618911743,1.27,1.86,-1.09,2.5
19.93845510482788,0.57,1.49,-1.95,2.51
19.93972396850586,-0.98,-0.9,6.21,6.35
19.95348024368286,-1.93,-3.71,3.03,5.16
19.954471111297607,0.67,3.01,6.87,7.53
19.969892978668213,2.7,1.57,-5.19,6.05
19.986783981323242,-1.2,0.79,-17.66,17.71
19.988036155700684,-2.5,5.09,-10.4,11.84
20.00349712371826,1.28,-0.71,-13.63,13.7
20.004481077194214,4.14,-11.78,-2.49,12.73
20.019999027252197,-0.19,-7.65,14.19,16.12
20.03663396835327,-3.64,-0.14,33.81,34.0
20.037822008132935,-3.89,16.9,-4.13,17.82
20.053800106048584,-0.39,-1.71,-2.2,2.81
20.054770946502686,9.06,-13.25,-3.9,16.51
20.06935691833496,2.86,9.26,-12.71,15.98
20.08583903312683,-4.34,0.87,-6.6,7.94
20.087059020996094,-4.53,-2.92,2.93,6.13
20.104132175445557,3.24,-3.27,2.54,5.25
20.10509204864502,2.73,1.25,9.79,10.24
20.119478225708008,-3.62,-5.35,0.73,6.5
20.137026071548462,-6.26,4.79,2.97,8.42
20.13825511932373,2.03,11.16,-6.47,13.05
20.153213024139404,3.32,1.37,-11.32,11.87
20.154160976409912,0.38,-9.47,12.35,15.56
20.17025089263916,-4.56,-2.97,-7.46,9.23
20.18730592727661,-3.4,3.58,4.89,6.94
20.18856406211853,-1.27,9.86,13.56,16.81
20.20411705970764,3.16,7.4,-5.24,9.6
20.205082893371582,4.53,-8.74,-18.78,21.2
20.22035789489746,3.47,6.17,-17.29,18.68
20.23758602142334,-2.35,1.55,-5.66,6.32
20.23882293701172,-1.48,-2.03,18.51,18.67
20.25367498397827,4.0,-4.66,5.17,8.02
20.254626035690308,1.79,1.82,6.43,6.91
20.269906997680664,-3.99,-7.22,6.33,10.39
20.28705906867981,-1.58,1.74,-7.22,7.59
20.288330078125,1.25,4.99,-11.84,12.9
20.303874015808105,-3.33,5.83,2.23,7.07
20.30491805076599,-4.19,1.48,-1.24,4.61
20.3195960521698,-2.18,-0.65,-8.99,9.27
20.336153984069824,-2.3,-1.98,2.96,4.23
20.337385177612305,0.47,-5.44,8.97,10.5
20.353637218475342,3.26,-8.29,5.93,10.7
20.35458207130432,0.34,8.62,2.38,8.94
20.37004804611206,0.59,4.55,8.76,9.88
20.387492179870605,3.48,-2.53,-6.79,8.03
20.38872718811035,-2.31,12.07,-27.37,30.0
20.40358591079712,-6.87,-0.46,15.61,17.06
20.404678106307983,-4.18,-12.38,3.46,13.51
20.42291808128357,-2.11,9.74,0.16,9.96
20.44025993347168,-0.08,1.19,9.59,9.66
20.441508054733276,1.19,-8.21,-6.01,10.24
20.454104900360107,-1.76,10.14,-25.14,27.16
20.45510506629944,-5.64,4.4,3.07,7.78
20.4708251953125,-3.6,-11.45,2.62,12.28
20.48806095123291,7.58,1.15,6.92,10.32
20.489285945892334,0.41,4.44,7.74,8.93
20.50467610359192,-4.74,-4.65,7.18,9.77
20.50563907623291,-2.06,-1.36,-0.83,2.6
20.52024221420288,7.05,8.12,-5.76,12.19
20.53719997406006,4.13,-11.41,-16.28,20.3
20.53843402862549,-3.07,3.39,-6.25,7.74
20.55348300933838,-8.72,2.65,-0.26,9.11
20.554641008377075,0.57,-11.65,4.23,12.4
20.57009792327881,7.88,-8.01,12.18,16.57
20.587095022201538,1.5,5.04,11.92,13.02
20.58831214904785,-7.45,2.54,10.14,12.83
20.60448122024536,2.62,-0.74,2.85,3.94
20.605497121810913,8.01,0.24,-17.02,18.81
20.62077307701111,1.9,12.45,-17.83,21.82
20.63794708251953,-5.15,-3.55,-6.84,9.26
20.639281034469604,-4.4,-12.21,-0.15,12.97
20.654301166534424,1.26,2.69,3.5,4.59
20.655282020568848,7.23,-0.73,23.41,24.51
20.670083045959473,3.76,1.24,-6.6,7.69
20.68728017807007,-2.7,2.38,8.92,9.61
20.688525199890137,-4.51,4.07,-15.26,16.42
20.70426893234253,-3.2,4.45,-8.74,10.31
20.705238103866577,-0.11,-3.73,7.02,7.95
20.720818042755127,2.79,-2.99,10.87,11.61
20.7381591796875,-0.75,4.52,-9.48,10.52
20.739434242248535,0.37,-0.71,-4.91,4.97
20.75390100479126,3.48,-1.73,-1.02,4.01
20.754916191101074,1.66,2.92,-0.33,3.37
20.77014923095703,-7.32,3.31,6.63,10.41
20.787464141845703,-2.47,3.98,1.6,4.94
20.78877902030945,8.33,5.29,-7.45,12.36
20.804169178009033,6.32,-11.84,-0.79,13.44
20.805138111114502,-4.66,-0.24,0.82,4.73
20.82027292251587,-5.89,-9.89,5.0,12.55
20.837361097335815,2.42,6.76,14.93,16.56
20.838642120361328,3.85,5.74,3.78,7.87
20.85386896133423,-2.04,-1.54,-7.74,8.15
20.854905128479004,-2.83,-0.29,-2.43,3.74
20.870240211486816,1.5,10.74,-11.73,15.97
20.88742208480835,1.62,-3.01,-10.3,10.85
20.888716220855713,-3.08,-9.45,-5.04,11.14
20.903979063034058,-1.61,-4.08,8.67,9.71
20.904932022094727,3.33,2.51,-0.24,4.17
20.920709133148193,3.86,7.33,-0.01,8.28
20.938529014587402,-3.17,-1.29,9.49,10.08
20.939718008041382,-5.25,7.97,-5.48,11.0
20.954867124557495,-0.25,4.61,-12.28,13.11
20.955868244171143,2.31,-6.73,0.47,7.13
20.970396995544434,4.41,2.18,13.79,14.64
20.98748803138733,4.91,-7.23,3.02,9.24
20.988776206970215,3.35,-2.35,-1.95,4.53
21.004199981689453,-1.33,2.67,-5.13,5.93
21.00514793395996,0.11,4.46,1.35,4.66
21.01999807357788,2.26,-3.62,-10.3,11.14
21.037378072738647,1.37,-6.22,-0.57,6.39
21.038650035858154,-1.33,3.38,16.4,16.79
21.054419994354248,0.5,9.26,2.89,9.71
21.055397987365723,0.68,-8.11,-0.76,8.17
21.070924043655396,-0.3,2.69,-5.43,6.06
21.08931803703308,-2.81,-5.46,1.65,6.35
21.09057307243347,-0.41,2.06,-16.14,16.27
21.104257106781006,0.33,4.0,5.46,6.77
21.10520315170288,0.47,-7.99,2.58,8.4
21.120060920715332,1.85,-0.25,12.13,12.27
21.13717794418335,1.93,1.3,-5.72,6.17
21.13842010498047,0.62,-1.99,3.84,4.36
21.15384602546692,2.47,2.72,9.35,10.04
21.15480089187622,2.7,4.66,-4.6,7.08
21.170006036758423,-0.33,10.42,0.39,10.43
21.187581062316895,-3.87,8.88,-11.28,14.86
21.188785076141357,-0.8,-11.47,-11.54,16.29
21.204548120498657,3.15,-2.58,-14.88,15.42
21.205506086349487,-1.93,6.69,-8.44,10.94
21.220678091049194,-0.54,-17.79,29.12,34.12
21.23760223388672,2.09,-10.12,5.75,11.82
21.23888111114502,2.0,10.26,-1.64,10.58
21.25399398803711,-3.41,0.94,2.22,4.17
21.254940032958984,0.63,0.7,-8.98,9.02
21.27010703086853,0.97,5.03,2.82,5.84
21.287128925323486,-0.5,7.12,2.59,7.59
21.288405895233154,-0.64,-9.27,2.28,9.56
21.30461812019348,2.16,6.54,-10.35,12.43
21.305618047714233,0.79,-0.73,6.48,6.56
21.320165157318115,-2.67,-8.0,1.91,8.64
21.337302207946777,-3.19,4.62,-15.81,16.77
21.33848524093628,-2.3,-2.51,8.1,8.78
21.354371070861816,4.75,-1.39,2.93,5.75
21.355309009552002,2.87,-2.24,7.09,7.97
21.370110988616943,-2.83,8.63,3.94,9.89
21.38728094100952,-2.94,4.94,0.36,5.75
21.38853693008423,3.0,-0.33,-17.02,17.28
21.406573057174683,2.98,-8.57,1.36,9.17
21.407531023025513,1.25,0.34,2.79,3.07
21.420989990234375,-1.08,1.64,13.23,13.37
21.43843412399292,-0.97,-5.86,4.19,7.26
21.43969702720642,0.39,7.09,-3.85,8.07
21.45355200767517,3.05,-1.39,0.51,3.39
21.454699993133545,0.41,4.65,-21.35,21.85
21.470746994018555,-4.23,8.31,-11.52,14.82
21.487574100494385,-4.51,-8.18,-5.61,10.89
21.48878502845764,1.34,-5.26,14.64,15.61
21.504551887512207,6.51,-0.09,20.82,21.81
21.505486965179443,-1.73,13.56,3.3,14.06
21.520298957824707,-8.17,13.4,-12.43,20.02
21.537063121795654,-1.79,-8.94,-6.23,11.04
21.53828716278076,7.45,-6.17,-18.48,20.85
21.554213047027588,11.27,-5.78,0.05,12.66
21.555213928222656,-3.79,-4.68,4.53,7.53
21.570034980773926,-9.42,3.59,10.84,14.8
21.586807012557983,-2.52,-0.3,13.41,13.64
21.58810305595398,4.35,-2.69,-2.08,5.52
21.605082035064697,-1.76,-1.15,-6.53,6.86
21.606121063232422,-4.01,8.31,-4.63,10.32
21.621174097061157,1.18,1.47,-8.41,8.61
21.638691902160645,3.13,-1.61,3.96,5.29
21.639939069747925,0.0,2.53,15.61,15.81
21.655779123306274,-2.95,-5.57,-0.99,6.38
21.6567702293396,0.91,6.66,-2.78,7.27
21.671968936920166,5.53,-8.94,-1.2,10.58
21.690218925476074,4.03,-1.25,-6.58,7.81
21.69146203994751,-3.63,8.84,-18.7,21.0
21.704440116882324,-5.83,-2.98,27.45,28.22
21.705424070358276,-0.71,3.29,-1.85,3.84
21.721002101898193,4.25,6.97,-7.64,11.18
21.73755121231079,-1.03,-5.8,-3.14,6.67
21.738791942596436,-0.29,4.08,-12.16,12.82
21.75440502166748,-1.58,-6.22,-12.38,13.94
21.755361080169678,1.0,1.9,6.18,6.54
21.770533084869385,-1.38,-1.9,24.2,24.31
21.787569046020508,-3.41,1.17,9.98,10.61
21.78879404067993,-1.69,-2.6,-5.85,6.62
21.804758071899414,3.84,-8.64,-7.03,11.78
21.805711030960083,0.38,7.64,-9.6,12.27
21.82076907157898,-1.28,4.67,-10.55,11.6
21.837745189666748,-0.87,-6.96,12.5,14.33
21.838980197906494,1.35,0.07,5.82,5.97
21.854595184326172,-0.48,-0.56,8.99,9.02
21.85557222366333,-1.0,1.9,0.44,2.19
21.870177030563354,1.21,-5.99,-2.99,6.8
21.886779069900513,0.74,0.03,-8.0,8.03
21.887954235076904,-2.63,10.49,-7.12,12.94
21.904545068740845,-3.33,1.14,-2.22,4.16
21.905487060546875,2.47,-6.69,2.68,7.61
21.920959949493408,3.14,-0.18,4.85,5.78
21.93787908554077,-2.37,12.36,-6.2,14.02
21.939085006713867,-1.26,-4.24,18.41,18.93
21.955737113952637,1.54,1.11,-12.34,12.48
21.956748962402344,-3.09,4.53,-5.22,7.57
21.972203016281128,-7.29,-7.2,2.29,10.49
21.989665985107422,-2.01,3.29,-6.39,7.46
21.990899085998535,-1.06,-9.06,16.15,18.54
22.004699230194092,1.15,7.65,3.38,8.44
22.005677223205566,0.41,6.85,-6.65,9.55
22.020672082901,4.27,-10.67,10.58,15.62
22.03732705116272,3.61,-6.62,-11.9,14.08
22.038554191589355,-4.63,22.23,-16.25,27.92
22.05474615097046,-10.14,-0.55,20.28,22.68
22.05576515197754,-6.07,-18.26,-3.59,19.57
22.0716450214386,9.02,5.59,-20.12,22.74
22.08950424194336,2.69,0.95,7.08,7.63
22.09075403213501,-3.63,-4.94,10.65,12.28
22.104820013046265,-3.13,7.52,-7.67,11.18
22.105849027633667,2.6,4.14,-0.21,4.89
22.12096905708313,-0.85,2.96,-2.72,4.1
22.138164043426514,-3.62,-1.32,3.81,5.41
22.13940715789795,-0.5,0.53,-3.09,3.17
22.15474009513855,3.04,-5.22,-1.4,6.2
22.155695915222168,0.97,-4.87,4.9,6.97
22.170329093933105,-3.57,3.02,-3.03,5.57
22.187685012817383,-4.43,7.43,0.36,8.65
22.18894100189209,-1.62,2.2,2.94,4.01
22.204915046691895,0.66,4.78,-4.64,6.69
22.205868244171143,1.74,-6.87,3.25,7.79
22.221301078796387,3.65,0.85,0.94,3.86
22.238070964813232,1.21,0.53,15.94,15.99
22.23931121826172,-3.63,0.81,2.28,4.36
22.25402593612671,-5.94,-1.46,6.28,8.76
22.255213022232056,-2.26,-0.82,-9.54,9.83
22.271370887756348,-0.21,3.58,-24.54,24.8
22.288419008255005,-1.16,0.69,-9.22,9.31
22.28965711593628,-3.39,0.81,-8.26,8.96
22.304697036743164,-3.18,-10.79,30.64,32.63
22.305799961090088,2.16,8.08,13.29,15.7
22.320590019226074,4.47,9.97,-4.39,11.77
22.337904930114746,1.82,-11.07,4.63,12.13
22.339184045791626,-3.79,3.22,-22.45,22.99
22.35452103614807,-5.45,-11.19,-1.9,12.59
22.35556697845459,-1.55,7.63,0.44,7.79
22.370639085769653,0.89,3.86,18.99,19.39
22.38811492919922,1.86,-14.72,-6.97,16.39
22.389328002929688,-0.49,4.18,-11.07,11.84
22.404888153076172,2.52,3.53,-1.81,4.69
22.40590810775757,2.41,-3.08,7.71,8.64
22.42077112197876,-1.7,9.71,-0.15,9.85
22.437724113464355,-4.0,-4.46,-2.41,6.45
22.4389591217041,1.5,-4.0,1.89,4.67
22.454260110855103,2.86,2.46,-3.94,5.45
22.455467224121094,-1.76,5.72,10.07,11.71
22.471649169921875,-6.32,-5.19,8.18,11.56
22.489217042922974,-0.31,-1.04,-5.56,5.66
22.49048089981079,6.0,3.17,-9.37,11.56
22.505397081375122,6.89,-10.46,-4.59,13.33
22.506389141082764,-0.33,-1.48,-2.32,2.77
22.521008014678955,-7.64,-0.93,11.24,13.62
22.538039207458496,-4.68,7.27,8.69,12.25
22.539390087127686,5.21,8.08,-9.54,13.54
22.554913997650146,4.01,-5.53,-16.45,17.81
22.555864095687866,-2.0,0.82,-17.04,17.17
22.5711669921875,-6.42,-8.13,-0.08,10.35
22.58790922164917,0.25,-1.4,24.2,24.24
22.589158058166504,5.04,-6.17,13.96,16.07
22.605309009552002,-1.62,13.98,-12.66,18.92
22.606341123580933,-2.2,-8.77,18.46,20.55
22.621753215789795,-0.23,-8.46,-20.11,21.81
22.638701915740967,1.94,12.32,1.03,12.51
22.640010118484497,-2.4,0.9,-2.81,3.8
22.65551519393921,-4.92,-0.21,6.53,8.17
22.656506061553955,-1.96,-3.56,-0.41,4.08
22.67084789276123,1.58,-1.63,-8.58,8.87
22.688009023666382,-0.95,1.92,-0.36,2.17
22.68920111656189,-2.7,3.87,6.11,7.72
22.705164909362793,-1.86,4.77,1.69,5.39
22.70620608329773,0.98,0.15,1.93,2.16
22.72160005569458,0.25,3.47,1.72,3.88
22.73923110961914,-1.24,-1.15,-6.13,6.35
22.74047613143921,-3.47,3.77,-9.69,10.96
22.754796981811523,-1.44,-1.79,8.77,9.06
22.75575590133667,1.86,-4.46,4.39,6.52
22.77116298675537,2.11,3.2,-2.45,4.54
22.788321018218994,-2.59,0.5,-7.7,8.13
22.78956699371338,-2.81,9.59,-13.76,17.0
22.806133031845093,3.45,-5.74,6.05,9.02
22.80716323852539,2.79,-4.67,-1.36,5.6
22.82095503807068,-4.39,1.48,11.31,12.22
22.83791708946228,-2.44,-6.57,7.19,10.04
22.839081048965454,2.73,-4.54,4.21,6.76
22.85505199432373,-0.93,4.12,-2.56,4.93
22.856029987335205,-4.22,4.85,-5.7,8.59
22.870772123336792,-0.23,4.21,5.15,6.65
22.88822102546692,1.57,-3.45,-2.24,4.4
22.889450073242188,-0.67,6.62,-6.19,9.08
22.904359102249146,-0.86,-3.67,0.64,3.82
22.905404090881348,0.72,1.04,-11.05,11.12
22.920730113983154,-0.33,0.95,2.77,2.94
22.937532901763916,-4.13,-5.1,11.98,13.65
22.938947200775146,-2.36,7.37,-0.77,7.77
22.9546480178833,0.11,-1.96,-0.71,2.08
22.955631017684937,1.13,4.19,-5.7,7.16
22.971867084503174,-1.04,1.06,-2.3,2.73
22.990339040756226,-0.23,-2.12,-7.32,7.62
22.991542100906372,-1.33,-5.93,6.56,8.94
23.005096912384033,-1.97,-5.61,10.35,11.93
23.00607705116272,-0.23,6.33,4.2,7.6
23.020965099334717,3.25,2.8,5.3,6.81
23.038050174713135,-1.51,-3.2,-11.84,12.35
23.039278030395508,-6.66,6.3,-7.94,12.12
23.054728031158447,-5.62,-1.89,-4.09,7.2
23.055689096450806,0.53,-6.53,11.26,13.02
23.07157301902771,4.33,0.25,4.9,6.54
23.088629007339478,2.03,-0.95,1.0,2.45
23.089838981628418,2.2,-0.37,0.55,2.29
23.104843139648438,2.53,3.36,-10.46,11.27
23.105821132659912,-1.68,2.7,-2.49,4.03
23.120830059051514,-5.51,0.87,0.57,5.6
23.13797616958618,-0.86,-2.12,-4.27,4.84
23.139266967773438,3.88,-4.07,7.72,9.55
23.155909061431885,2.1,-3.51,-0.22,4.09
23.156909942626953,-2.68,2.13,1.22,3.63
23.170970916748047,-2.44,-0.08,9.27,9.58
23.188186168670654,-0.25,4.18,-1.52,4.45
23.189369201660156,-0.16,-0.55,5.56,5.58
23.205541133880615,1.8,-1.98,-11.42,11.72
23.206541061401367,2.36,2.12,-7.51,8.15
23.221374988555908,-0.74,-0.76,0.24,1.08
23.238643169403076,-4.68,-1.44,1.04,5.0
23.23992609977722,-5.24,-6.08,7.6,11.05
23.256267070770264,-1.12,-1.45,-1.53,2.38
23.257287979125977,3.56,7.98,3.61,9.45
23.270967960357666,2.09,-3.9,-6.18,7.6
23.287782192230225,-2.48,6.71,7.3,10.22
23.289018154144287,-4.24,1.17,-2.41,5.01
23.305147171020508,1.05,-2.35,-11.49,11.77
23.306228160858154,3.4,-3.37,-6.71,8.24
23.321604013442993,-0.21,-4.19,-9.69,10.55
23.33915615081787,-4.58,7.38,-2.91,9.16
23.3404221534729,-3.26,-1.06,7.02,7.81
23.354980945587158,0.8,-11.78,39.98,41.68
23.355984210968018,0.24,14.98,-24.27,28.52
23.373868942260742,-3.2,-1.39,-2.07,4.05
23.391536235809326,1.17,-10.45,-14.3,17.74
23.39280891418457,7.18,-0.57,-4.02,8.24
23.40520191192627,-1.81,1.77,1.1,2.76
23.406155109405518,-8.16,20.54,15.4,26.93
23.420862197875977,-3.62,-17.54,9.09,20.08
23.437724113464355,6.55,8.63,-20.19,22.91
23.438915014266968,6.78,5.28,8.71,12.23
23.455806016921997,0.62,-3.8,-16.54,16.98
23.456778049468994,-4.68,6.1,11.14,13.53
23.471944093704224,-4.31,4.0,-14.42,15.57
23.48979616165161,-2.18,-1.23,-5.94,6.44
23.49104118347168,-0.84,-11.08,26.7,28.91
23.505661964416504,3.65,0.1,2.9,4.66
23.50663709640503,1.79,2.76,-6.73,7.49
23.52120804786682,-1.52,10.04,2.44,10.44
23.538228034973145,-3.13,-4.05,-4.12,6.57
23.539489030838013,-2.97,-9.66,-6.14,11.82
23.555413007736206,-3.4,1.89,-7.52,8.46
23.55636692047119,-0.54,-1.49,6.4,6.59
23.57169008255005,1.23,0.28,5.87,6.0
23.58883810043335,-1.1,1.33,-5.15,5.43
23.59006905555725,-2.68,-2.36,10.96,11.52
23.606327056884766,4.01,0.19,-7.94,8.89
23.607408046722412,7.24,-0.51,4.07,8.32
23.62283420562744,2.93,-6.27,5.01,8.54
23.640239238739014,-4.58,10.31,2.03,11.46
23.641511917114258,-4.36,-3.33,7.26,9.09
23.655922889709473,3.86,-5.86,-2.49,7.44
23.65691900253296,3.39,5.33,-11.17,12.83
23.67235517501831,-5.34,-0.73,-9.02,10.5
23.689484119415283,-6.13,3.19,-1.93,7.17
23.69076919555664,0.3,0.82,4.72,4.8
23.705985069274902,3.13,7.06,2.84,8.22
23.707056045532227,-1.19,-3.02,1.88,3.75
23.72134494781494,0.82,-3.62,-2.09,4.25
23.738637924194336,3.86,-3.69,3.68,6.48
23.739936113357544,2.46,4.98,0.2,5.55
23.75509810447693,-1.63,7.17,-4.09,8.41
23.75631809234619,-2.69,-6.09,3.51,7.52
23.772140979766846,0.91,-2.33,-7.22,7.64
23.789385080337524,1.46,-7.82,2.4,8.3
23.79063105583191,-2.02,8.83,-3.53,9.72
23.805113077163696,-3.64,1.65,10.29,11.03
23.806334972381592,0.4,-9.37,-1.62,9.51
23.820765018463135,1.34,5.5,-2.9,6.36
23.838130950927734,-1.3,1.07,2.62,3.11
23.83944797515869,-2.23,-3.35,-1.18,4.19
23.855366230010986,1.19,-0.01,-1.22,1.7
23.856359004974365,1.42,0.28,1.33,1.96
23.872138023376465,-0.61,4.39,0.5,4.46
23.889738082885742,-2.55,-1.3,-6.5,7.1
23.890963077545166,-0.74,1.26,-1.17,1.87
23.905570030212402,-1.26,6.85,2.23,7.31
23.906536102294922,-0.82,2.57,-5.68,6.28
23.921181201934814,1.27,-3.7,4.18,5.72
23.938252925872803,4.78,5.59,-1.1,7.43
23.939513206481934,-1.32,-0.62,-12.57,12.65
23.956022024154663,-1.79,2.46,5.16,5.99
23.957004070281982,-0.32,-5.72,1.96,6.05
23.972193241119385,0.17,-4.94,1.4,5.13
23.989734172821045,-2.99,8.63,3.73,9.86
23.990994930267334,-3.09,-2.53,5.48,6.78
24.00646209716797,-1.79,6.29,-16.26,17.52
24.007532119750977,-2.78,-2.82,1.97,4.42
24.023211002349854,-3.55,-3.28,-0.6,4.87
24.040017127990723,-1.89,6.43,2.39,7.11
24.041254997253418,2.75,-4.44,18.17,18.9
24.0556001663208,4.14,1.61,-2.74,5.21
24.056669235229492,0.09,9.76,-1.17,9.83
24.07167100906372,-0.49,-9.97,-6.71,12.02
24.088765144348145,-0.05,-3.47,-16.39,16.75
24.090002059936523,-2.08,8.4,0.92,8.7
24.10576820373535,-6.04,-1.63,15.78,16.97
24.106736183166504,-2.04,-14.79,13.53,20.14
24.12208318710327,2.3,1.64,-8.69,9.13
24.138742923736572,2.05,16.15,-14.33,21.68
24.140016078948975,1.09,-4.64,8.16,9.45
24.155126094818115,-2.39,1.15,-22.84,22.99
24.156301021575928,-5.12,6.59,-2.29,8.65
24.172107219696045,-1.45,-7.5,16.89,18.53
24.188966035842896,3.95,-6.41,2.99,8.1
24.19029402732849,-1.95,5.08,-8.35,9.96
24.206471920013428,-6.73,1.75,4.83,8.46
24.207449913024902,-2.26,-2.96,1.9,4.18
24.222037076950073,4.99,1.26,-0.2,5.15
24.23911190032959,0.65,0.62,-11.88,11.91
24.240345001220703,-1.27,3.78,1.27,4.18
24.256187915802002,-1.26,-0.79,-0.6,1.6
24.25718402862549,-0.79,1.92,10.79,10.98
24.27205514907837,-3.11,-7.35,8.03,11.32
24.28962206840515,-2.4,3.01,-4.88,6.21
24.29088306427002,2.73,3.04,-2.77,4.93
24.305821895599365,5.38,-5.77,-4.43,9.04
24.30678701400757,-0.47,6.04,-7.17,9.38
24.32246494293213,-3.89,-4.3,9.82,11.4
24.33991813659668,2.33,-1.9,10.13,10.56
24.34116005897522,4.25,8.57,-10.56,14.24
24.357436180114746,0.64,-6.3,16.29,17.47
24.35862112045288,-4.2,-0.12,-11.17,11.93
24.37246322631836,-2.19,4.18,-9.98,11.03
24.39128017425537,-0.82,-11.04,15.04,18.67
24.392467975616455,6.06,6.91,-6.2,11.08
24.405596017837524,-0.43,2.71,12.22,12.52
24.40658712387085,-2.55,-3.6,-1.79,4.76
24.422420978546143,-1.91,2.37,-6.8,7.45
24.440800189971924,0.81,1.44,-5.74,5.97
24.442025184631348,-0.81,3.54,6.47,7.41
24.454880237579346,-3.06,-5.17,4.16,7.3
24.45582914352417,-2.6,1.82,2.53,4.05
24.470943927764893,1.77,-2.37,-5.01,5.81
24.488126039505005,3.55,1.91,2.83,4.92
24.489337921142578,-0.43,6.24,-4.39,7.64
24.50402593612671,-3.54,0.98,-2.14,4.25
24.505009174346924,-0.85,0.29,-9.98,10.02
24.520602226257324,2.34,-2.67,-6.15,7.1
24.537769079208374,1.43,-3.97,2.51,4.9
24.53896403312683,0.15,-2.3,12.4,12.61
24.552839040756226,1.26,-0.61,9.02,9.12
24.55445098876953,2.11,1.94,-5.34,6.06
24.571057081222534,2.65,-3.55,0.21,4.43
24.588210105895996,-0.25,3.72,-10.24,10.89
24.58949613571167,-3.05,-1.53,-11.5,11.99
24.604995012283325,-1.87,-2.0,-4.82,5.54
24.605985164642334,1.55,-3.81,5.84,7.14
24.620182037353516,3.2,-4.07,8.47,9.92
24.637391090393066,0.63,-0.57,7.82,7.86
24.638565063476562,-2.85,7.98,3.44,9.14
24.655182123184204,-1.25,-1.49,0.57,2.02
24.65613317489624,4.82,0.01,-11.96,12.89
24.670891046524048,3.23,-0.73,-1.17,3.51
24.687875032424927,-3.79,-1.37,5.67,6.95
24.68907403945923,-4.31,1.7,6.44,7.93
24.7044939994812,0.24,-0.75,6.73,6.77
24.70551300048828,0.71,5.13,8.35,9.82
24.719871997833252,-1.53,2.95,-7.2,7.92
24.737441062927246,-2.76,1.42,-9.17,9.68
24.738729000091553,0.92,-1.38,-0.27,1.68
24.754673957824707,2.4,-1.58,1.86,3.42
24.75582218170166,-1.57,0.62,4.57,4.87
24.771507024765015,-4.12,-1.05,7.55,8.66
24.788611888885498,-0.31,1.58,-8.09,8.24
24.789752960205078,2.3,-0.27,-12.27,12.48
24.80389404296875,0.7,-1.32,-4.61,4.84
24.80491590499878,-1.19,0.02,-7.71,7.8
24.821094036102295,0.13,0.71,0.39,0.82
24.838374137878418,2.95,-5.5,0.72,6.28
24.839579105377197,1.44,-2.92,11.12,11.58
24.8528950214386,-2.41,-3.34,10.13,10.93
24.854565143585205,-2.15,4.42,-3.25,5.89
24.8700110912323,1.44,1.36,-5.56,5.9
24.887526035308838,2.4,4.18,-11.71,12.66
24.88876724243164,-1.37,-0.18,5.7,5.86
24.904267072677612,-2.13,-4.88,4.37,6.88
24.90542221069336,-1.56,4.49,-2.5,5.37
24.919772148132324,-2.73,-5.23,4.6,7.48
24.936975955963135,-0.97,-1.74,3.62,4.13
24.93817901611328,0.88,2.62,-11.95,12.26
24.95491313934326,-1.16,1.72,-4.33,4.8
24.955904960632324,-1.36,5.14,2.34,5.8
24.97003698348999,-1.22,2.68,-6.71,7.32
24.987240076065063,-2.83,-1.06,4.91,5.76
24.98847723007202,-3.55,-5.96,4.87,8.47
25.004061222076416,-1.06,-2.16,7.44,7.81
25.005228996276855,0.2,6.58,1.11,6.67
25.02048397064209,-0.85,2.48,3.69,4.52
25.0377459526062,-0.55,-6.21,-2.32,6.65
25.038980960845947,-1.01,12.01,-9.87,15.57
25.054102897644043,-0.84,1.01,-1.22,1.79
25.05515718460083,5.17,-7.49,-1.37,9.2
25.07039499282837,2.69,-5.75,8.67,10.74
25.08756923675537,-7.29,13.66,-2.51,15.68
25.088730096817017,-6.02,-0.51,14.18,15.41
25.104541063308716,7.05,-8.06,-8.61,13.74
25.105666160583496,9.48,2.8,-19.21,21.6
25.119436025619507,-3.53,-1.73,9.25,10.05
25.136837005615234,-10.6,5.26,6.11,13.31
25.13798999786377,0.3,-0.55,8.22,8.24
25.155067920684814,7.98,-4.72,-2.54,9.61
25.156164169311523,3.26,6.0,-10.29,12.34
25.171186923980713,-3.24,-7.07,-4.36,8.91
25.188342094421387,-0.15,4.62,-8.98,10.09
25.189539909362793,2.66,1.4,3.94,4.95
25.205015182495117,0.85,-1.24,8.04,8.17
25.206013202667236,-0.07,-3.93,8.0,8.91
25.22138214111328,3.02,-2.13,-9.13,9.84
25.238209009170532,4.58,1.74,-5.61,7.44
25.239422082901,2.08,-1.43,2.41,3.48
25.254395961761475,-3.07,1.4,1.01,3.52
25.25554609298706,-1.59,-4.53,-3.77,6.1
25.27244806289673,3.43,-1.63,-1.17,3.97
25.290478229522705,3.38,0.23,-4.2,5.39
25.291685104370117,-0.24,3.01,6.66,7.31
25.305443048477173,-2.36,-1.26,14.91,15.14
25.306430101394653,-0.27,-0.89,6.3,6.36
25.320914030075073,2.24,0.43,-6.74,7.11
25.338666915893555,0.78,-7.62,4.07,8.67
25.339788913726807,-1.42,11.82,-2.0,12.07
25.355099201202393,-5.22,8.34,-28.65,30.29
25.356110095977783,-5.28,-1.73,-10.38,11.77
25.372118949890137,-4.82,-14.3,-7.01,16.63
25.391443014144897,6.67,-7.42,36.24,37.58
25.392712116241455,5.63,11.83,28.16,31.05
25.405198097229004,-8.03,15.5,-29.57,34.33
25.406217098236084,-5.45,-11.53,-1.14,12.8
25.42263412475586,-0.27,-14.48,-5.32,15.42
25.441637992858887,7.99,3.14,-17.16,19.18
25.44281816482544,-4.71,13.56,6.46,15.74
25.455910205841064,-8.99,2.74,1.47,9.51
25.456907033920288,-0.88,-5.73,31.71,32.23
25.47216010093689,12.1,2.7,-6.21,13.86
25.489273071289062,2.35,5.33,-29.11,29.68
25.49052095413208,-6.86,-4.66,-18.84,20.58
25.50555992126465,-2.54,-8.48,17.56,19.66
25.506515979766846,1.13,0.83,4.63,4.83
25.522018909454346,-0.34,5.07,15.82,16.61
25.539213180541992,-1.29,-3.09,9.56,10.12
25.54042410850525,1.5,-1.89,-10.94,11.2
25.55485510826111,2.93,11.84,-3.73,12.75
25.5558180809021,-0.26,-0.48,-9.98,9.99
25.57139015197754,-3.75,-2.48,4.13,6.1
25.588977098464966,-3.54,5.0,2.62,6.66
25.590195178985596,-0.62,-3.19,3.28,4.61
25.604793071746826,1.43,-2.27,0.08,2.68
25.605896949768066,-0.1,3.63,-4.42,5.72
25.620975971221924,-1.82,0.26,-4.85,5.18
25.63818907737732,-0.91,2.32,-6.23,6.7
25.6393940448761,-2.23,11.69,0.5,11.91
25.65480899810791,-3.24,-6.42,9.76,12.12
25.655856132507324,2.19,-6.05,8.22,10.43
25.67171001434326,4.94,-5.72,3.72,8.42
25.68854308128357,0.57,-2.91,1.05,3.14
25.689757108688354,-2.82,-4.87,-0.75,5.67
25.704631090164185,-1.41,3.63,-21.49,21.83
25.705949068069458,1.71,14.03,-2.19,14.3
25.720969200134277,-2.48,5.03,-5.19,7.64
25.739553928375244,-0.98,-5.59,21.37,22.11
25.740739107131958,3.82,-2.28,0.83,4.52
25.755049228668213,-1.2,-2.6,-6.53,7.13
25.756068229675293,-6.46,0.8,-1.35,6.64
25.771989107131958,-4.37,-7.25,22.4,23.94
25.789119243621826,-0.27,-1.59,-15.91,15.99
25.790332078933716,2.52,16.05,-10.73,19.47
25.804184913635254,-2.59,0.69,-4.67,5.38
25.80580997467041,2.05,-5.65,0.73,6.05
25.82090997695923,-0.92,1.64,3.07,3.6
25.83825707435608,-5.19,12.63,-4.77,14.46
25.839500904083252,-1.98,2.9,3.81,5.18
25.85397505760193,0.23,-12.43,4.74,13.3
25.85557222366333,2.81,2.26,1.59,3.94
25.872441053390503,-3.92,-2.0,5.53,7.06
25.889986038208008,-2.2,5.15,0.79,5.65
25.891210079193115,1.6,5.6,-5.51,8.01
25.90484094619751,4.86,-9.41,0.45,10.6
25.90588903427124,-0.37,-3.56,-5.9,6.9
25.92166805267334,-3.44,4.73,-3.69,6.91
25.938883066177368,-2.77,-11.84,9.12,15.19
25.94013500213623,2.33,-0.94,-7.92,8.3
25.95434308052063,2.02,0.99,7.88,8.19
25.955647945404053,-2.6,-3.31,4.12,5.88
25.971143007278442,-1.69,8.21,-2.5,8.74
25.98788809776306,0.98,-0.58,-10.22,10.28
25.989121913909912,0.65,0.24,-5.5,5.54
26.00394916534424,-1.09,-2.39,-4.9,5.55
26.00557518005371,-1.28,-1.78,11.74,11.94
26.021605968475342,1.55,-6.17,15.82,17.05
26.03877019882202,-1.93,1.25,9.39,9.66
26.039881229400635,-5.13,8.19,-4.27,10.56
26.054243087768555,1.78,-6.39,1.45,6.78
26.055578231811523,4.92,-1.61,-19.0,19.69
26.071532011032104,0.9,6.74,0.64,6.82
26.088505029678345,-4.75,-0.14,-8.89,10.08
26.089722156524658,-4.59,-1.65,-4.96,6.95
26.105181217193604,0.43,2.06,0.59,2.18
26.106192111968994,2.25,0.34,-3.29,4.0
26.12126588821411,-1.62,-1.79,14.49,14.68
26.13846707344055,-1.73,2.5,8.0,8.55
26.139655113220215,2.05,0.47,8.54,8.79
26.154778003692627,4.04,-0.89,-0.69,4.19
26.15596294403076,-0.07,-1.72,-7.17,7.37
26.171816110610962,-4.09,-1.44,-9.04,10.02
26.188815116882324,-3.76,3.92,-12.39,13.52
26.18999409675598,-1.18,-1.75,-7.75,8.03
26.204775094985962,-0.3,-9.32,-7.11,11.72
26.20584011077881,2.27,-1.89,42.99,43.09
26.221362113952637,2.64,13.12,12.08,18.02
26.23884105682373,-4.43,7.59,-16.9,19.04
26.24007511138916,-2.25,-8.54,-15.28,17.64
26.254367113113403,7.99,-11.44,-0.58,13.96
26.255441188812256,5.93,1.2,-19.38,20.3
26.2713680267334,-4.68,8.65,-8.64,13.09
26.289143085479736,-5.58,-12.68,45.77,47.82
26.290414094924927,-5.21,-3.76,2.04,6.74
26.304310083389282,8.36,15.9,0.01,17.96
26.305467128753662,3.39,0.92,-32.36,32.55
26.32359218597412,4.0,-7.29,-8.29,11.74
26.34212589263916,0.64,-2.41,7.86,8.24
26.343317985534668,-8.43,2.68,1.54,8.97
26.35523009300232,-1.57,3.86,18.55,19.01
26.356208086013794,2.18,-2.34,-4.68,5.66
26.37282419204712,3.97,-5.54,0.63,6.84
26.391809940338135,1.31,1.18,-11.78,11.91
26.39302396774292,0.2,5.62,-5.42,7.81
26.404908180236816,-1.59,6.0,4.31,7.55
26.40597105026245,-2.56,-5.6,10.38,12.06
26.42212200164795,-2.35,-0.24,-1.27,2.68
26.440402030944824,0.45,-5.09,-2.91,5.88
26.44151210784912,2.06,-4.62,4.42,6.71
26.455809116363525,0.01,7.63,-1.81,7.84
26.456815242767334,-2.3,-3.33,7.0,8.08
26.473185062408447,0.34,-3.19,-1.92,3.73
26.490717887878418,1.86,9.4,-2.99,10.03
26.4919331073761,1.45,-0.01,8.79,8.9
26.504794120788574,-0.51,-6.29,-7.92,10.12
26.505839109420776,-2.47,-1.19,-4.22,5.03
26.521279096603394,-3.31,-3.28,5.36,7.1
26.538022994995117,-1.0,-1.8,-5.11,5.5
26.539241075515747,-0.75,4.96,-5.04,7.11
26.555405139923096,-0.38,3.84,4.33,5.79
26.556457996368408,3.19,-0.98,-2.28,4.04
26.57053518295288,4.24,-0.33,-3.57,5.55
26.58780813217163,1.52,2.88,2.22,3.94
26.589025020599365,-1.46,-1.96,0.77,2.56
26.60582399368286,-1.49,-2.9,0.56,3.3
26.60677194595337,-1.51,3.19,1.33,3.77
26.621629238128662,-1.71,2.28,1.87,3.4
26.638976097106934,1.39,-1.65,0.7,2.26
26.6401948928833,3.69,-0.4,-2.2,4.31
26.655927181243896,0.72,5.04,3.76,6.32
26.656954050064087,0.17,-5.32,0.1,5.32
26.671398162841797,1.2,-4.11,0.14,4.28
26.68974208831787,-0.9,5.56,-0.25,5.63
26.691051959991455,-4.12,-6.88,-0.37,8.02
26.704933166503906,-2.3,-0.14,6.82,7.19
26.706100940704346,2.52,0.84,-5.96,6.52
26.721123218536377,0.9,-0.45,-5.91,5.99
26.738183975219727,-2.81,7.32,3.33,8.51
26.739490032196045,-3.02,-2.22,-4.8,6.09
26.75548505783081,1.4,-3.01,4.02,5.21
26.756482124328613,3.44,1.81,-0.1,3.88
26.772358894348145,-0.1,0.28,3.15,3.16
26.790010929107666,-1.35,2.7,1.92,3.57
26.791213989257812,0.93,0.01,-4.07,4.17
26.804551124572754,0.42,1.32,-3.23,3.51
26.805885076522827,-3.76,5.96,1.14,7.13
26.82032608985901,-4.13,-3.19,1.98,5.58
26.837605953216553,1.42,-2.89,-2.18,3.88
26.83876609802246,2.67,1.72,-9.21,9.74
26.855052947998047,-1.24,-5.33,0.31,5.48
26.856280088424683,-3.34,-0.03,-1.48,3.65
26.8716402053833,-0.12,3.77,1.28,3.98
26.88886022567749,1.55,-4.06,2.79,5.16
26.890067100524902,0.88,1.67,-3.19,3.7
26.90528702735901,0.86,2.29,-3.84,4.55
26.9064040184021,1.33,-3.28,2.4,4.27
26.92118811607361,-0.96,1.13,1.16,1.88
26.93848705291748,-1.98,-0.88,2.42,3.24
26.93971610069275,-0.53,-2.0,0.98,2.28
26.954998016357422,1.63,-0.77,6.26,6.51
26.956120014190674,0.38,-0.45,0.77,0.96
26.971286058425903,-2.89,4.52,-4.39,6.93
26.988392114639282,-3.62,-1.12,0.3,3.8
26.989602088928223,-1.19,2.44,-3.31,4.28
27.004585027694702,-0.77,0.3,-5.31,5.37
27.005829095840454,0.33,-3.84,4.03,5.57
27.0207040309906,1.13,-0.47,-0.51,1.32
27.037482023239136,-0.3,-0.55,8.66,8.68
27.038666009902954,-0.96,-0.39,6.0,6.08
27.05549192428589,-0.1,7.91,-0.49,7.92
27.056490898132324,-0.48,-1.77,8.77,8.95
27.072299003601074,-0.49,0.22,-3.37,3.41
27.089823007583618,0.72,3.0,-10.3,10.75
27.091031074523926,0.48,-3.24,1.32,3.53
27.10567617416382,-1.65,5.04,-9.07,10.5
27.106688976287842,-3.06,1.16,-13.12,13.52
27.121690034866333,-3.03,-7.1,1.19,7.81
27.138697147369385,0.4,2.97,11.89,12.26
27.13991117477417,0.35,-0.17,-3.32,3.34
27.1557559967041,-0.97,-0.17,7.18,7.24
27.15667200088501,0.07,1.4,0.87,1.64
27.17236614227295,0.78,-5.4,6.55,8.52
27.19068717956543,-2.78,1.41,-3.11,4.4
27.191941022872925,-4.8,3.82,2.28,6.54
27.205493927001953,-2.59,-5.48,-7.12,9.35
27.20667600631714,0.74,-5.05,1.29,5.26
27.22151517868042,1.7,1.12,-0.96,2.25
27.23827314376831,1.51,5.32,0.8,5.58
27.239463090896606,2.3,-5.02,-5.99,8.14
27.25516104698181,1.42,-3.69,10.73,11.43
27.256230115890503,-2.67,2.77,0.46,3.87
27.271617889404297,-5.01,0.71,-5.68,7.6
27.28926110267639,-2.07,2.87,-5.08,6.19
27.29046106338501,1.15,3.13,-2.09,3.93
27.306684017181396,-0.63,-3.72,-6.95,7.9
27.3076810836792,-0.39,-3.98,3.36,5.22
27.321551084518433,1.23,2.43,1.05,2.91
27.3382670879364,1.99,1.52,6.41,6.88
27.33948802947998,-0.28,-1.23,12.37,12.43
27.356050968170166,-1.96,-1.58,-0.45,2.55
27.357059955596924,-0.67,-2.83,-5.47,6.19
27.373356103897095,2.14,-1.01,1.1,2.6
27.391242027282715,1.47,1.56,-9.4,9.64
27.392510890960693,-2.44,2.73,3.47,5.04
27.40687894821167,-3.84,-1.1,-1.55,4.28
27.407952070236206,-1.09,6.34,0.09,6.43
27.42282199859619,1.35,-0.04,-0.4,1.4
27.439515113830566,0.87,-2.12,7.33,7.67
27.44074010848999,-1.52,-2.46,-4.3,5.18
27.45521306991577,1.41,-3.57,-0.36,3.85
27.456564903259277,1.89,-3.63,-0.26,4.1
27.47165822982788,-2.27,5.82,-10.61,12.31
27.48884391784668,-6.66,-3.17,-5.02,8.92
27.489994049072266,-2.88,-1.68,1.66,3.72
27.50458002090454,5.95,4.51,5.37,9.19
27.50616216659546,0.22,1.09,1.26,1.68
27.522484064102173,-5.48,3.9,3.55,7.6
27.540005207061768,-2.24,-1.79,1.65,3.3
27.54108715057373,2.77,2.07,6.24,7.13
27.5558021068573,1.29,-5.51,-2.31,6.11
27.55687403678894,-3.89,7.63,-7.59,11.44
27.571846961975098,-3.8,-6.09,0.73,7.21
27.588978052139282,2.53,-7.29,-7.76,10.94
27.590200901031494,3.53,-0.49,1.73,3.96
27.604432106018066,-2.07,4.72,5.79,7.75
27.606118202209473,-7.09,7.54,5.83,11.87
27.621857166290283,-4.0,-1.68,-0.71,4.39
27.638344049453735,1.55,-11.85,-6.41,13.56
27.639540195465088,2.51,12.69,-9.75,16.19
27.655290126800537,-2.65,0.67,11.99,12.29
27.6564621925354,-4.85,1.48,-1.27,5.22
27.672914028167725,-1.55,1.61,-0.75,2.35
27.691822052001953,1.24,1.36,1.41,2.31
27.693100929260254,-0.55,2.93,0.3,2.99
27.705631017684937,-4.5,-4.44,-4.9,7.99
27.706729888916016,-3.79,2.11,1.29,4.52
27.72206211090088,-1.0,0.27,2.24,2.46
27.739123106002808,0.13,-3.49,7.35,8.13
27.740341186523438,-2.74,5.8,-4.9,8.07
27.75470805168152,-3.8,-0.21,-3.25,5.0
27.756237983703613,-2.13,-5.3,-0.96,5.79
27.771975994110107,-0.25,0.2,-2.12,2.14
27.788919925689697,-1.05,-6.17,3.18,7.02
27.79013705253601,-1.44,1.19,10.77,10.93
27.805542945861816,0.99,1.06,3.12,3.44
27.806641101837158,-0.77,-4.07,-7.65,8.69
27.822200059890747,-3.34,2.47,5.42,6.82
27.83910894393921,-3.86,-1.46,0.85,4.21
27.84033489227295,-1.7,1.65,-0.54,2.42
27.85560703277588,-1.95,0.83,-2.64,3.38
27.85659909248352,-2.73,0.78,-5.55,6.23
27.872334003448486,-2.26,-3.67,-6.79,8.04
27.889496088027954,-0.99,-4.44,-5.04,6.78
27.890696048736572,-1.79,2.27,4.89,5.68
27.904633045196533,-1.58,5.83,15.14,16.3
27.906163215637207,-1.5,10.21,-4.19,11.13
27.922542095184326,-2.56,4.29,-13.56,14.45
27.94001817703247,-2.07,-3.38,-6.78,7.85
27.941296100616455,4.0,-6.08,-0.85,7.32
27.954920053482056,4.18,-8.16,-2.96,9.63
27.956265926361084,-3.05,-0.53,22.71,22.92
27.97163200378418,-9.29,-1.24,16.71,19.15
27.989439010620117,-3.73,5.93,3.8,7.96
27.99067711830139,1.1,1.55,-5.44,5.76
28.005751132965088,-0.4,2.27,-9.86,10.12
28.006811141967773,-3.18,-6.56,-8.28,11.03
28.021674156188965,-1.69,2.52,-1.69,3.47
28.03858995437622,-0.88,-0.02,2.29,2.45
28.039777040481567,-1.97,-3.81,9.42,10.35
28.05533218383789,-1.51,1.99,5.53,6.06
28.05642318725586,2.23,-3.9,-0.33,4.5
28.071521043777466,2.81,5.08,-12.53,13.8
28.089381217956543,-2.89,3.1,-14.8,15.39
28.090611934661865,-5.98,-3.76,7.74,10.47
28.10520911216736,-2.68,-5.57,12.9,14.3
28.106390953063965,4.77,2.26,11.26,12.43
28.121958017349243,4.01,4.73,-0.42,6.21
28.139103889465332,-0.18,-4.81,18.27,18.89
28.140366077423096,-6.72,1.97,-16.78,18.18
28.156233072280884,-0.74,0.82,6.1,6.19
28.157229900360107,4.58,0.14,2.44,5.19
28.17163896560669,-1.4,5.25,-22.33,22.98
28.189456939697266,-8.07,-2.52,-20.72,22.37
28.190636157989502,-4.38,-2.41,-12.83,13.76
28.205893993377686,-0.87,-0.27,-23.71,23.72
28.207053184509277,-2.06,-1.44,29.84,29.94
28.22134494781494,2.53,-6.76,28.62,29.51
28.23857808113098,6.35,24.63,-16.25,30.18
28.239840984344482,-12.06,-3.33,-39.74,41.66
28.25611901283264,-3.11,-20.16,10.12,22.77
28.25705909729004,4.4,4.7,0.65,6.47
28.272953033447266,-2.71,-2.48,-0.82,3.76
28.292037963867188,-4.17,-2.28,33.79,34.12
28.293248176574707,-7.98,-7.16,-3.81,11.37
28.3061580657959,2.87,-1.24,7.93,8.52
28.30721092224121,4.06,10.62,-17.47,20.84
28.322794914245605,0.81,8.03,-16.74,18.58
28.342275142669678,-4.46,2.61,-2.18,5.6
28.343560218811035,-8.76,2.26,-5.99,10.85
28.35701894760132,-5.51,-5.0,26.69,27.7
28.35810613632202,-0.37,-2.46,5.93,6.43
28.374133110046387,4.98,-0.46,7.52,9.03
28.39506196975708,4.06,-9.58,-0.5,10.41
28.39653706550598,-1.43,11.02,-17.67,20.87
28.407299995422363,-3.9,1.63,-7.23,8.37
28.40844202041626,-4.34,3.03,-13.98,14.94
28.423842906951904,-3.49,3.71,-19.31,19.97
28.4432110786438,-2.43,-14.42,2.0,14.75
28.4443941116333,0.48,-11.27,53.16,54.34
28.45724105834961,4.12,11.37,-5.96,13.48
28.458285093307495,-4.69,9.66,-8.63,13.77
28.47222089767456,0.86,-23.02,4.36,23.44
28.49034595489502,6.47,3.14,-10.75,12.93
28.49155306816101,-1.63,6.04,-0.14,6.25
28.50693702697754,-10.59,4.12,7.16,13.43
28.507898092269897,-4.9,-1.78,1.88,5.54
28.52340316772461,2.1,-5.27,-3.63,6.73
28.540590047836304,1.27,-0.96,-11.69,11.79
28.54182505607605,-0.92,-2.09,6.84,7.21
28.557069063186646,-2.86,6.67,5.71,9.23
28.558056116104126,-1.66,4.05,3.53,5.62
28.57396697998047,0.6,-0.81,-0.13,1.01
28.5910701751709,-0.11,0.29,-1.11,1.15
28.592267990112305,-1.72,1.91,-2.61,3.66
28.607367992401123,-1.77,-0.4,-0.42,1.86
28.60832691192627,-0.43,2.08,-6.32,6.66
28.62331199645996,-2.37,3.36,-4.24,5.9
28.64003610610962,-2.9,-5.32,3.26,6.88
28.64126205444336,-1.45,1.0,1.94,2.62
28.657531023025513,0.91,-0.87,2.14,2.48
28.658616065979004,-1.74,-2.96,-3.04,4.58
28.674181938171387,-2.28,4.79,-7.64,9.3
28.691610097885132,-3.32,-6.49,8.9,11.5
28.69285297393799,0.21,3.21,0.44,3.24
28.70681095123291,1.16,4.13,-0.01,4.28
28.707870960235596,-0.82,1.02,-8.62,8.71
28.722023010253906,-4.08,-4.32,-2.42,6.41
28.738790035247803,-1.09,1.33,5.98,6.22
28.740067958831787,5.05,-2.83,16.97,17.93
28.75650906562805,3.76,-5.33,11.03,12.81
28.75765109062195,-5.09,10.71,-1.24,11.92
28.773138999938965,-0.56,-0.83,-7.21,7.27
28.79041814804077,7.57,0.32,-10.16,12.67
28.791665077209473,1.78,-2.98,-7.23,8.02
28.80709218978882,-12.06,4.32,2.54,13.05
28.80807113647461,-8.51,0.4,8.71,12.18
28.822779178619385,4.76,-9.14,11.1,15.14
28.839513063430786,9.36,3.66,-12.12,15.74
28.840740203857422,-0.12,0.77,2.36,2.48
28.85616397857666,-8.56,3.69,-6.37,11.29
28.85729694366455,-6.72,-0.6,-9.3,11.48
28.87239122390747,1.12,9.34,-3.92,10.19
28.889385223388672,2.49,-6.79,19.84,21.11
28.890635013580322,2.39,-3.92,5.62,7.25
28.90833616256714,-1.48,2.13,-5.7,6.26
28.909329891204834,-0.43,-0.8,-3.67,3.78
28.92271900177002,2.59,-0.18,-3.59,4.43
28.93994903564453,2.56,6.64,-6.24,9.46
28.94121789932251,-4.09,1.09,-7.24,8.38
28.958040237426758,-4.73,-5.93,-0.62,7.61
28.958996057510376,-0.24,-7.62,14.37,16.26
28.97303605079651,4.71,2.02,1.38,5.3
28.989989042282104,1.64,0.94,11.35,11.5
28.991213083267212,-1.75,7.31,4.2,8.61
29.00828790664673,-2.32,-2.46,-1.28,3.61
29.009285926818848,0.27,-3.77,-14.24,14.73
29.023900032043457,-0.14,4.41,-15.79,16.39
29.04124116897583,-2.52,0.99,-7.15,7.64
29.042519092559814,-4.84,-6.25,20.22,21.71
29.0578031539917,-0.15,-3.63,9.64,10.3
29.058861017227173,2.74,-7.21,-0.42,7.72
29.07391905784607,2.77,3.36,-1.86,4.73
29.09102702140808,2.4,5.79,4.94,7.98
29.092225074768066,-0.64,3.07,9.0,9.53
29.10807704925537,-7.85,0.14,-10.6,13.19
29.109042167663574,-6.17,7.9,-1.02,10.07
29.123605012893677,3.12,-9.96,-4.32,11.29
29.140281200408936,4.82,-5.97,-8.58,11.51
29.141486167907715,-1.98,-0.39,-1.4,2.45
29.157913208007812,-7.72,-3.21,-4.98,9.73
29.158945083618164,-1.84,3.29,-7.44,8.34
29.17476511001587,2.17,-4.54,3.17,5.94
29.19193696975708,-5.06,5.15,2.84,7.75
29.19317603111267,-10.81,16.41,16.16,25.44
29.208499908447266,5.66,2.27,-3.0,6.79
29.209530115127563,13.41,-9.92,-1.45,16.74
29.225351095199585,-0.04,-6.71,-1.09,6.79
29.242270946502686,-7.94,0.56,1.38,8.07
29.243595123291016,-0.42,1.25,-6.27,6.4
29.258129119873047,4.05,-2.31,18.01,18.6
29.25911808013916,2.52,-4.33,5.05,7.11
29.276632070541382,-1.12,0.63,-6.48,6.6
29.294584035873413,-1.1,10.94,-13.52,17.42
29.295866012573242,-1.2,6.16,-12.33,13.83
29.308137893676758,-3.21,-6.6,1.22,7.43
29.30909013748169,-1.79,-2.67,6.09,6.88
29.325418949127197,0.85,3.16,-4.29,5.39
29.343098163604736,-0.18,3.27,-6.45,7.23
29.34437894821167,-3.08,-0.55,9.56,10.05
29.358013153076172,-0.65,1.57,-3.14,3.57
29.359041213989258,3.8,1.24,10.67,11.39
29.374207019805908,1.07,-2.84,-5.88,6.61
29.39114999771118,-4.22,7.68,-3.12,9.3
29.392446041107178,-2.96,-8.79,1.65,9.42
29.408073902130127,1.39,-11.36,-0.04,11.44
29.40906000137329,2.02,1.22,-2.78,3.64
29.425426959991455,-0.11,-0.13,7.38,7.38
29.443896055221558,2.4,-2.93,-1.52,4.08
29.4451642036438,5.45,6.08,-3.89,9.04
29.458498001098633,0.72,2.59,-7.02,7.51
29.45954704284668,-5.01,-0.07,3.48,6.1
29.47510004043579,-3.67,-5.0,6.95,9.31
29.49258804321289,1.61,-3.94,3.18,5.31
29.49383306503296,2.45,-6.1,2.33,6.97
29.508893966674805,0.41,-5.73,0.15,5.74
29.509891986846924,-2.3,10.97,-5.19,12.35
29.52465009689331,-2.92,8.42,-7.38,11.57
29.54196310043335,0.13,-3.5,4.33,5.56
29.543241024017334,3.22,-1.72,-3.42,5.0
29.55787420272827,0.56,-2.04,-2.63,3.37
29.558855056762695,-1.59,3.9,2.83,5.07
29.57383704185486,-0.89,-3.49,12.15,12.67
29.590927124023438,1.72,-8.63,5.3,10.27
29.59215021133423,-0.32,13.58,-11.97,18.1
29.608491897583008,-2.81,10.04,-6.3,12.18
29.60954189300537,-0.14,-3.38,-9.26,9.85
29.624975204467773,3.18,-4.79,-2.93,6.45
29.64219307899475,-1.09,7.47,0.73,7.58
29.643381118774414,-3.55,5.48,3.09,7.22
