time,ax,ay,az,atotal
0.011542081832885742,0.29,-0.35,0.54,0.7
0.022504091262817383,0.09,-0.23,0.36,0.43
0.024669170379638672,0.06,0.07,-0.06,0.11
0.03492593765258789,0.28,0.11,-0.44,0.53
0.044944047927856445,0.34,0.09,-0.61,0.7
0.055036067962646484,0.2,-0.08,-0.29,0.36
0.06460309028625488,0.09,-0.19,0.06,0.21
0.07487916946411133,0.13,-0.22,0.26,0.36
0.08449411392211914,0.02,-0.18,-0.09,0.2
0.09438323974609375,0.51,-0.75,0.32,0.96
0.10477304458618164,-0.41,0.27,0.38,0.62
0.11570906639099121,-0.99,0.9,-1.22,1.81
0.12404489517211914,0.04,1.04,-1.09,1.5
0.13431406021118164,0.14,0.36,-0.76,0.85
0.14430904388427734,-0.44,-0.17,0.44,0.64
0.15416717529296875,-0.42,-0.5,0.78,1.01
0.16483807563781738,-0.05,-0.26,0.46,0.53
0.17369508743286133,0.03,0.02,-0.1,0.1
0.18456602096557617,-0.14,0.46,-0.55,0.73
0.19397807121276855,-0.21,0.59,-0.83,1.03
0.20443010330200195,-0.03,0.33,-0.68,0.75
0.21579909324645996,0.16,-0.03,-0.09,0.18
0.22364306449890137,0.12,-0.26,0.36,0.46
0.23352909088134766,0.11,-0.23,0.43,0.49
0.24381208419799805,0.29,-0.07,-0.04,0.3
0.25391602516174316,0.36,0.15,-0.38,0.54
0.2649211883544922,0.15,0.22,-0.74,0.78
0.2740480899810791,0.2,-0.02,-0.43,0.47
0.28763508796691895,0.45,-0.22,-0.14,0.52
0.29344797134399414,0.52,-0.61,0.16,0.81
0.30353403091430664,0.44,-0.54,0.42,0.81
0.3146040439605713,0.45,-0.34,0.17,0.58
0.3228759765625,0.48,-0.03,-0.32,0.57
0.3336930274963379,0.41,0.06,-0.47,0.62
0.34292101860046387,0.39,0.04,-0.58,0.7
0.35312604904174805,0.55,-0.13,-0.52,0.76
0.3648810386657715,0.8,-0.1,-0.14,0.81
0.37253403663635254,1.02,0.96,-2.67,3.01
0.3883540630340576,1.31,0.37,1.83,2.28
0.3927040100097656,-0.55,0.76,-0.24,0.96
0.403393030166626,-0.63,0.97,1.08,1.58
0.4148111343383789,0.37,1.04,-1.3,1.7
0.42261219024658203,1.79,-0.26,-1.31,2.23
0.43718814849853516,1.37,0.21,-0.99,1.7
0.4421670436859131,-0.36,0.49,0.43,0.74
0.4527261257171631,-0.86,0.58,0.5,1.15
0.4636859893798828,0.45,0.15,-0.13,0.49
0.4721250534057617,1.59,0.1,-0.89,1.82
0.4826540946960449,1.62,-0.08,-1.37,2.12
0.4920170307159424,0.86,0.33,-0.56,1.07
0.5026600360870361,0.1,0.32,-0.43,0.54
0.5141110420227051,0.25,0.21,0.04,0.32
0.5220131874084473,0.78,-0.11,-0.28,0.83
0.5326740741729736,0.64,0.66,-0.5,1.04
0.5418510437011719,0.09,1.03,-1.08,1.49
0.5524170398712158,0.12,1.64,-1.26,2.07
0.564500093460083,0.18,1.66,-1.2,2.05
0.5716180801391602,-0.48,1.75,-0.19,1.82
0.5818381309509277,-0.8,1.71,0.1,1.89
0.5917329788208008,-0.05,1.23,0.44,1.3
0.6019871234893799,0.51,0.98,-0.43,1.18
0.6139369010925293,0.29,1.25,-0.52,1.38
0.6216611862182617,0.24,0.85,-1.19,1.48
0.631289005279541,0.73,1.06,-1.38,1.88
0.641916036605835,0.13,1.0,-1.2,1.56
0.6515190601348877,-0.99,0.96,-0.85,1.61
0.6634411811828613,-0.49,0.7,-1.32,1.57
0.6712660789489746,0.32,0.04,-1.17,1.21
0.6810722351074219,-0.91,1.22,-0.56,1.62
0.6909570693969727,-1.66,2.82,-0.31,3.28
0.701350212097168,0.56,2.79,-1.66,3.29
0.7133479118347168,2.27,1.74,-2.06,3.52
0.7208089828491211,-0.32,0.07,-1.18,1.22
0.7310240268707275,-3.46,-0.1,0.59,3.51
0.7409710884094238,-2.3,1.21,0.07,2.59
0.7512850761413574,0.87,2.2,-1.72,2.92
0.7629640102386475,1.48,3.02,-2.03,3.92
0.7709250450134277,0.43,2.95,-1.69,3.42
0.7808620929718018,-0.75,0.85,-1.84,2.16
0.7907431125640869,-1.38,1.38,-1.69,2.58
0.8006360530853271,-0.92,1.72,-1.51,2.46
0.8123950958251953,0.45,2.12,-1.1,2.43
0.8203601837158203,1.68,0.3,2.73,3.21
0.8301451206207275,1.79,-0.36,4.51,4.86
0.8404591083526611,0.54,1.91,-0.39,2.02
0.850074052810669,-0.05,1.61,-2.31,2.81
0.861854076385498,1.12,1.38,-1.99,2.66
0.8702569007873535,2.05,0.3,0.5,2.13
0.8801701068878174,1.12,1.41,1.77,2.52
0.8898830413818359,0.06,1.73,0.34,1.76
0.9000301361083984,0.58,1.91,-1.85,2.72
0.9115872383117676,1.31,1.18,-4.01,4.38
0.9198360443115234,-0.03,0.83,-3.98,4.06
0.9297530651092529,-1.98,1.32,-2.11,3.18
0.9398231506347656,-2.14,1.98,-1.44,3.25
0.949552059173584,-0.12,2.94,-2.03,3.57
0.961461067199707,1.61,2.25,-3.78,4.68
0.9703140258789062,1.08,3.64,-0.98,3.92
0.9793109893798828,-1.16,3.92,-0.67,4.14
0.9899182319641113,-2.01,4.04,-1.32,4.7
0.9995260238647461,-0.99,2.54,-4.13,4.94
1.0111310482025146,-0.63,0.51,-3.48,3.57
1.0195860862731934,-1.03,-2.37,3.19,4.1
1.0290489196777344,-0.09,-2.25,4.8,5.3
1.0394480228424072,0.91,0.96,1.03,1.67
1.0491509437561035,0.2,3.37,-3.72,5.02
1.0606451034545898,-1.53,1.2,-6.6,6.88
1.0692129135131836,-2.92,-1.83,-4.43,5.61
1.0789070129394531,-5.76,0.49,-0.87,5.84
1.0890591144561768,-8.32,2.24,2.47,8.96
1.0993151664733887,-6.18,3.05,4.91,8.46
1.1110849380493164,0.84,1.62,1.7,2.49
1.11915922164917,4.51,-0.04,-6.54,7.94
1.1288130283355713,-0.01,8.16,-3.81,9.0
1.1391270160675049,-4.77,0.92,-7.97,9.33
1.1484131813049316,-3.21,4.19,0.51,5.3
1.160214900970459,0.4,5.94,5.94,8.4
1.1684598922729492,-0.2,5.72,4.59,7.33
1.178293228149414,-2.64,7.11,-3.04,8.17
1.1885089874267578,1.12,-1.64,-2.99,3.58
1.1983861923217773,4.81,3.06,-0.69,5.74
1.210334062576294,2.16,4.07,4.42,6.38
1.2185630798339844,-2.9,3.97,3.55,6.06
1.2281641960144043,0.62,3.13,0.92,3.32
1.2381439208984375,6.14,1.21,-10.73,12.42
1.2482330799102783,2.85,3.38,-9.16,10.17
1.2602171897888184,-2.29,6.4,-5.1,8.49
1.268287181854248,-1.07,4.67,1.55,5.03
1.2776570320129395,4.03,-0.53,6.5,7.66
1.2879891395568848,1.44,-4.94,5.11,7.25
1.2975859642028809,-3.56,-3.55,7.97,9.42
1.3092131614685059,-0.23,-1.78,-0.1,1.79
1.3177261352539062,5.63,-1.43,-11.18,12.59
1.3273429870605469,6.55,-5.84,-1.12,8.84
1.3380942344665527,-2.05,-1.89,-8.3,8.75
1.3472740650177002,-4.77,-0.95,-2.1,5.29
1.3591110706329346,0.18,-3.71,5.09,6.3
1.3676161766052246,4.78,-2.38,10.86,12.1
1.3770580291748047,1.13,3.89,2.75,4.89
1.3873729705810547,-2.9,7.42,-6.54,10.3
1.397200107574463,0.08,-2.68,-8.48,8.89
1.4090571403503418,5.89,-7.34,-9.24,13.18
1.4174220561981201,1.11,0.74,-5.1,5.27
1.4267370700836182,-6.2,5.5,0.67,8.31
1.4372591972351074,-3.26,1.71,1.33,3.91
1.4475479125976562,5.84,-4.01,3.17,7.76
1.4616332054138184,4.74,-0.34,4.16,6.31
1.4673881530761719,-3.48,7.05,6.7,10.32
1.4765040874481201,-1.69,-0.47,-2.14,2.76
1.4870471954345703,4.88,-8.98,0.41,10.22
1.4965360164642334,2.62,-5.49,0.28,6.08
1.5084280967712402,-4.3,-3.01,2.6,5.85
1.5172090530395508,-4.11,-2.75,-0.16,4.94
1.5261950492858887,1.56,1.31,-5.66,6.01
1.5366449356079102,4.55,-2.05,-3.7,6.21
1.5463051795959473,2.69,1.45,7.47,8.07
1.5596652030944824,-2.44,4.62,-2.59,5.83
1.5661048889160156,-3.49,-0.35,-1.06,3.66
1.576247215270996,1.22,-7.96,3.27,8.69
1.5862350463867188,4.29,2.49,7.54,9.02
1.5964131355285645,2.3,-2.36,-0.11,3.29
1.608415126800537,0.12,4.58,-8.17,9.36
1.616112232208252,1.74,5.41,-8.51,10.23
1.6256260871887207,4.94,-1.71,-8.83,10.26
1.6360490322113037,6.74,3.52,4.66,8.91
1.6458511352539062,2.39,4.32,5.24,7.19
1.6579499244689941,-0.84,-1.04,5.4,5.56
1.6657352447509766,2.66,-4.54,-1.8,5.56
1.6754331588745117,6.79,-3.23,2.46,7.91
1.686432123184204,1.47,0.6,-3.23,3.59
1.6957271099090576,-4.61,1.67,1.38,5.09
1.7109060287475586,-3.17,4.45,-5.3,7.61
1.7153220176696777,1.18,-5.0,2.75,5.82
1.7251200675964355,-0.72,-1.82,-5.07,5.43
1.7354669570922852,-7.27,-1.69,-0.36,7.47
1.7451961040496826,-3.83,-2.24,3.77,5.82
1.7575290203094482,7.05,-1.05,7.2,10.13
1.7651071548461914,10.68,-5.95,-1.63,12.33
1.7751359939575195,2.76,-7.25,-9.7,12.42
1.7853100299835205,-2.3,-3.56,-4.49,6.17
1.7953441143035889,-4.99,-0.01,10.78,11.87
1.8075640201568604,-2.36,1.66,20.52,20.72
1.814979076385498,4.73,2.11,3.86,6.45
1.8245339393615723,7.2,-1.08,-9.92,12.3
1.8348190784454346,0.33,7.17,-6.93,9.97
1.844365119934082,-7.52,7.77,8.84,13.96
1.8567509651184082,-5.48,8.53,4.02,10.9
1.8643860816955566,5.6,-2.46,-6.33,8.8
1.8743960857391357,12.17,-10.09,-12.76,20.31
1.8845250606536865,8.44,-0.65,4.86,9.76
1.8943750858306885,-7.28,12.47,11.96,18.74
1.906482219696045,-19.6,2.53,2.3,19.89
1.9140501022338867,-5.9,0.31,-8.21,10.11
1.9242901802062988,7.82,-1.36,-0.67,7.96
1.9346141815185547,9.79,-5.54,6.89,13.19
1.9440350532531738,-1.16,6.5,0.77,6.64
1.9573791027069092,-0.28,-2.04,-7.68,7.95
1.9637751579284668,-3.71,9.23,1.02,9.99
1.9738860130310059,-8.84,1.04,3.61,9.6
1.984422206878662,-3.54,-1.81,-2.62,4.76
1.9938640594482422,6.59,3.5,-5.12,9.04
2.0059640407562256,0.27,6.11,-1.11,6.21
2.013803005218506,-9.79,0.44,8.5,12.97
2.023500919342041,0.97,-6.75,6.17,9.19
2.034302234649658,9.91,-4.08,-4.46,11.6
2.043236017227173,-4.47,-1.18,2.44,5.22
2.0555739402770996,-17.15,4.78,0.63,17.81
2.063282012939453,-7.49,3.83,-1.93,8.63
2.073291063308716,6.39,2.0,-8.62,10.91
2.08370304107666,5.69,1.38,-9.65,11.28
2.093262195587158,-5.83,4.36,1.58,7.44
2.1057190895080566,-3.08,2.71,-2.05,4.58
2.113101005554199,3.56,1.87,-6.83,7.92
2.123253107070923,-0.64,9.88,-5.74,11.44
2.133089065551758,-6.66,-1.07,18.74,19.91
2.143209934234619,-0.72,-9.91,9.54,13.77
2.155867099761963,7.1,4.08,3.29,8.82
2.1630051136016846,2.36,0.44,-5.49,5.99
2.1727309226989746,-7.05,3.71,-9.53,12.42
2.1827330589294434,-6.78,2.75,2.31,7.67
2.1927928924560547,4.85,-7.01,-9.09,12.46
2.2057299613952637,10.4,-8.9,-11.89,18.13
2.212402105331421,1.75,2.63,6.24,6.99
2.2226030826568604,-7.55,2.5,-2.77,8.42
2.2325000762939453,-0.4,-3.62,-0.62,3.69
2.2424590587615967,6.17,-4.97,-3.18,8.53
2.2555410861968994,0.14,2.98,0.92,3.12
2.2620620727539062,-6.32,1.69,5.23,8.37
2.272886037826538,0.51,-2.89,0.41,2.96
2.2821640968322754,7.64,-4.41,-1.56,8.95
2.292011022567749,3.0,4.78,-4.24,7.05
2.30387806892395,-4.64,1.05,4.38,6.46
2.3116049766540527,-1.71,-4.78,0.95,5.16
2.322134017944336,5.73,0.41,-3.76,6.86
2.3319191932678223,4.35,-4.12,0.04,5.99
2.3416199684143066,-2.89,1.63,3.04,4.5
2.3535919189453125,-3.13,0.89,3.24,4.59
2.361536979675293,4.1,-0.76,1.32,4.37
2.371458053588867,5.63,-1.43,-0.04,5.8
2.382355213165283,0.62,0.78,-2.37,2.57
2.39149808883667,-1.25,1.14,0.13,1.69
2.403806209564209,2.04,-0.24,5.41,5.78
2.4111509323120117,2.46,-1.5,-0.24,2.89
2.4212610721588135,-2.06,2.54,-2.53,4.13
2.4313931465148926,-2.28,-0.84,5.03,5.58
2.4412810802459717,1.67,3.59,2.43,4.64
2.4540510177612305,0.91,7.09,-13.02,14.85
2.4609580039978027,-1.35,9.16,-1.97,9.46
2.4709548950195312,-1.14,-1.23,-3.39,3.78
2.4810452461242676,-0.47,1.54,-4.5,4.77
2.4916272163391113,-0.09,7.7,-5.68,9.56
2.504657030105591,0.8,4.52,-6.43,7.9
2.5106890201568604,-1.18,-1.34,-1.24,2.17
2.5208849906921387,-2.95,-1.28,-1.82,3.69
2.5307459831237793,0.31,1.68,-0.32,1.73
2.5405240058898926,3.08,2.9,-5.1,6.62
2.5525100231170654,-2.49,3.87,4.17,6.21
2.560122013092041,-7.94,2.25,3.2,8.85
2.570401191711426,-1.53,0.97,0.63,1.91
2.580477237701416,7.63,1.31,3.35,8.43
2.5904951095581055,4.62,0.19,1.78,4.95
2.602752208709717,-3.79,2.91,4.92,6.85
2.6098990440368652,-3.11,1.35,1.37,3.65
2.6202621459960938,1.0,-0.5,-16.49,16.52
2.6301140785217285,0.69,-10.58,-3.46,11.15
2.6401960849761963,-1.62,-2.87,-6.59,7.36
2.6526951789855957,-1.38,-2.9,0.06,3.21
2.6597189903259277,2.22,-5.7,9.39,11.2
2.6698310375213623,2.71,-4.63,4.68,7.11
2.6794281005859375,-2.25,-0.32,7.0,7.35
2.690248966217041,-3.24,4.16,4.31,6.81
2.701491117477417,-0.77,-0.4,-2.35,2.5
2.7098278999328613,0.74,-4.86,3.63,6.11
2.719640016555786,2.46,1.45,-4.95,5.71
2.7296221256256104,1.01,7.2,-5.21,8.94
2.7397851943969727,-0.31,2.38,-4.32,4.94
2.7524352073669434,0.29,-9.59,-2.35,9.87
2.7592310905456543,3.48,-6.42,31.33,32.16
2.7693018913269043,2.15,10.79,8.64,13.98
2.779365062713623,0.89,7.02,-1.2,7.17
2.789505958557129,0.69,-3.19,-20.55,20.8
2.8022420406341553,-1.63,-16.85,-0.74,16.94
2.809047222137451,-7.02,10.07,-9.14,15.3
2.819272994995117,-7.0,25.74,-1.73,26.73
2.82912015914917,-2.58,4.01,11.71,12.64
2.839500904083252,6.89,-16.87,1.09,18.25
2.852351188659668,9.65,3.12,-9.85,14.13
2.858631134033203,-5.26,7.87,-6.57,11.52
2.868864059448242,-6.67,8.77,6.4,12.74
2.878829002380371,0.16,-9.5,23.03,24.91
2.888979911804199,4.22,-10.9,13.03,17.5
2.9008212089538574,-1.98,2.7,0.68,3.41
2.908708095550537,-2.57,14.64,-14.82,20.98
2.9190220832824707,-4.45,8.51,-11.77,15.19
2.928891181945801,-1.85,-16.17,3.83,16.72
2.9389700889587402,4.17,-8.53,-4.64,10.56
2.951688051223755,6.46,0.25,-4.25,7.73
2.958005905151367,-1.59,5.64,-7.99,9.9
2.968201160430908,-4.09,-3.08,6.11,7.97
2.97841215133667,-1.12,-10.85,5.97,12.43
2.9884650707244873,7.34,-3.6,7.53,11.11
3.001336097717285,5.43,4.09,-1.18,6.89
3.007775068283081,-2.46,11.61,0.74,11.89
3.0181798934936523,-4.26,2.86,-3.77,6.36
3.0276830196380615,3.46,-6.05,-1.38,7.1
3.038490056991577,6.26,2.58,-4.12,7.92
3.0514369010925293,-0.37,8.76,-2.7,9.17
3.0577280521392822,-4.63,5.34,3.07,7.7
3.070539951324463,0.1,-4.63,2.22,5.13
3.0773839950561523,5.31,-2.68,-0.14,5.94
3.0879321098327637,1.04,-6.48,-1.24,6.67
3.0993010997772217,-5.13,1.71,3.67,6.53
3.107239007949829,-5.49,9.8,-5.39,12.45
3.120828151702881,-1.94,4.71,-3.6,6.23
3.1273550987243652,0.39,-5.06,-12.44,13.43
3.137531042098999,1.56,7.23,-4.68,8.75
3.149203062057495,-0.81,-1.22,-0.09,1.46
3.157210111618042,-0.14,-3.41,7.31,8.06
3.1707711219787598,0.38,2.55,2.11,3.33
3.176815986633301,0.48,-0.06,-0.81,0.94
3.1875901222229004,0.5,-1.84,-9.93,10.11
3.1991961002349854,3.03,-8.76,-0.07,9.26
3.2070231437683105,2.59,-2.56,2.37,4.34
3.221534013748169,-1.66,19.7,-4.09,20.18
3.2266669273376465,-1.71,0.6,-7.01,7.24
3.2370951175689697,1.61,-6.36,-10.98,12.79
3.2480149269104004,4.38,-0.07,17.02,17.57
3.2567570209503174,0.61,4.27,5.99,7.38
3.2667341232299805,-3.49,13.89,16.0,21.47
3.2770509719848633,-1.52,-7.49,-8.92,11.74
3.2869701385498047,2.41,-0.49,-26.09,26.2
3.29878306388855,2.68,-2.76,-2.64,4.66
3.3065972328186035,-2.26,-5.92,8.32,10.45
3.3166589736938477,-2.84,-8.0,29.57,30.76
3.3261821269989014,2.05,1.54,10.92,11.21
3.336625099182129,3.76,-10.95,-4.35,12.36
3.348924160003662,1.48,-6.74,-4.24,8.09
3.356076240539551,-4.09,5.72,-5.6,8.98
3.366051197052002,-5.85,-2.36,3.03,6.99
3.3760571479797363,-1.15,0.46,2.44,2.73
3.386660099029541,3.54,-4.51,6.81,8.9
3.3992550373077393,3.47,-0.31,7.15,7.95
3.4061341285705566,-2.06,4.46,-6.35,8.02
3.4156570434570312,-5.63,4.33,-11.9,13.85
3.426248073577881,-3.31,-1.38,-1.16,3.76
3.4362311363220215,-0.11,-3.8,-5.05,6.32
3.4483420848846436,0.68,1.63,0.43,1.81
3.455286979675293,0.39,9.36,-5.93,11.08
3.465339183807373,-1.11,10.61,-6.14,12.3
3.4754691123962402,-2.64,1.69,8.59,9.14
3.485793113708496,-1.7,4.66,3.26,5.93
3.4979429244995117,1.39,2.98,-2.03,3.86
3.50533390045166,-0.04,2.32,-9.72,9.99
3.515294075012207,-3.06,-0.67,-3.76,4.89
3.5252230167388916,-0.84,-2.65,-4.22,5.05
3.5356669425964355,3.94,0.4,-3.77,5.46
3.5490810871124268,5.25,-7.97,34.64,35.93
3.554702043533325,-0.31,6.99,9.74,11.99
3.565091133117676,-4.12,5.13,-0.47,6.59
3.5751519203186035,-1.05,-12.4,-23.49,26.58
3.585451126098633,1.15,-9.83,-5.35,11.25
3.5981369018554688,-0.44,2.93,-1.02,3.13
3.604818105697632,-2.93,-0.79,1.55,3.4
3.6146080493927,-2.54,-18.31,14.49,23.48
3.6251590251922607,3.13,-1.97,-10.56,11.18
3.6350510120391846,-2.53,7.25,-6.86,10.29
3.6477088928222656,-4.34,5.31,-1.2,6.96
3.653975009918213,-1.61,-4.72,2.81,5.72
3.664443016052246,3.29,-9.37,6.1,11.65
3.674373149871826,2.76,-0.18,3.0,4.08
3.684976100921631,1.95,5.04,1.94,5.74
3.697766065597534,-0.41,-1.63,3.19,3.6
3.703994035720825,-2.29,-2.07,8.34,8.89
3.714047908782959,-1.69,2.78,0.0,3.25
3.7243242263793945,2.98,7.54,-9.86,12.76
3.7350049018859863,4.04,14.19,-17.5,22.88
3.748220920562744,4.51,0.5,-1.15,4.68
3.7533679008483887,-1.32,-3.21,-2.13,4.07
3.7634029388427734,-4.86,-6.47,3.13,8.67
3.77360200881958,-0.08,-6.3,7.43,9.74
3.784032106399536,3.41,2.41,1.25,4.35
3.796685218811035,0.84,2.67,0.24,2.8
3.8035390377044678,-3.81,6.21,-7.53,10.47
3.813383102416992,-4.81,-3.54,-11.08,12.58
3.823939085006714,0.02,-0.45,-9.38,9.39
3.833393096923828,5.85,-2.42,5.0,8.06
3.8460822105407715,6.58,-0.04,10.05,12.01
3.853087902069092,-0.9,11.84,5.69,13.16
3.863129138946533,-5.74,1.39,2.31,6.34
3.8732500076293945,-2.73,1.48,-10.69,11.13
3.883078098297119,2.15,1.19,-7.74,8.12
3.896182060241699,2.16,-7.47,4.46,8.96
3.902863025665283,1.23,-5.64,10.37,11.86
3.9124531745910645,-1.17,-3.98,1.32,4.35
3.923518180847168,-2.62,-1.71,9.56,10.05
3.9333560466766357,-2.44,-1.85,2.69,4.07
3.946774959564209,-4.43,-1.24,-2.5,5.23
3.9528942108154297,-3.69,1.83,0.99,4.23
3.96225905418396,0.26,1.24,-9.56,9.64
3.973241090774536,1.52,5.28,-14.21,15.23
3.9825000762939453,-1.74,0.1,-5.08,5.37
3.9962611198425293,-6.56,0.52,-6.61,9.32
4.002288103103638,-4.78,0.2,14.61,15.37
4.0122761726379395,3.51,-16.2,36.26,39.86
4.022407054901123,4.4,13.13,-10.04,17.1
4.0321221351623535,-0.19,2.81,3.09,4.18
4.044389009475708,3.28,-11.4,-19.63,22.93
4.052218914031982,6.96,-9.57,-5.29,12.96
4.062591075897217,3.43,-0.5,-1.51,3.78
4.072022914886475,-4.79,12.77,-4.57,14.38
4.08250617980957,-2.28,-0.42,4.97,5.48
4.094475030899048,2.24,-16.68,1.32,16.88
4.101896047592163,2.45,-3.55,-2.45,4.96
4.111306190490723,1.51,7.52,7.98,11.06
4.121769905090332,1.28,6.3,9.88,11.78
4.131629943847656,0.44,-4.42,2.56,5.12
4.143824100494385,-1.36,-5.35,2.48,6.05
4.1519060134887695,-1.92,-1.28,-3.84,4.47
4.161087989807129,-0.62,4.44,-4.73,6.51
4.171730995178223,1.21,5.29,-4.84,7.27
4.181344985961914,0.92,8.09,-4.3,9.2
4.194726943969727,-1.15,-2.66,-7.44,7.98
4.2017412185668945,-1.05,4.31,-8.75,9.81
4.21075701713562,2.64,-1.96,11.69,12.14
4.221391201019287,6.39,-4.26,26.61,27.69
4.231164932250977,0.7,-0.04,-3.25,3.32
4.2452192306518555,-1.54,3.88,-12.98,13.63
4.2507970333099365,1.55,1.36,-21.12,21.22
4.260926008224487,-0.34,-12.41,0.7,12.43
4.27133321762085,-1.25,0.92,1.21,1.96
4.280954122543335,-1.56,5.2,8.34,9.95
4.295228004455566,1.71,6.36,-6.56,9.29
4.300858020782471,-1.35,2.01,-3.43,4.19
4.310225009918213,-1.04,-17.44,5.96,18.45
4.320847988128662,4.12,-4.7,16.47,17.61
4.3304829597473145,2.79,10.63,3.51,11.53
4.34408712387085,-3.76,10.19,-2.79,11.21
4.350187063217163,-0.03,-9.28,-9.09,12.99
4.359992027282715,6.3,-11.25,-10.66,16.72
4.37032413482666,2.98,8.79,-4.69,10.39
4.3804931640625,-4.2,8.39,12.55,15.66
4.39431619644165,-1.86,-5.69,19.94,20.81
4.399795055389404,2.04,3.75,1.34,4.47
4.410336971282959,-0.05,3.6,-9.75,10.39
4.42020320892334,-1.88,-3.93,-7.56,8.72
4.4297590255737305,-1.16,0.19,-13.02,13.07
4.443185091018677,0.74,-2.8,10.63,11.01
4.449552059173584,-0.37,-0.98,3.7,3.84
4.459419012069702,-1.91,-5.15,7.92,9.63
4.469820976257324,-1.34,-0.16,-4.15,4.36
4.479541063308716,-0.69,0.28,-7.99,8.02
4.4934821128845215,-0.58,3.64,-7.47,8.32
4.49968409538269,-2.08,19.33,-3.75,19.79
4.509198188781738,-1.94,0.0,7.33,7.58
4.519946098327637,3.07,-3.29,9.73,10.72
4.5295329093933105,5.81,-5.06,-1.36,7.82
4.54264497756958,0.65,-0.71,-7.07,7.13
4.548924922943115,-4.39,1.65,-5.19,6.99
4.559396028518677,-3.51,5.48,-2.39,6.93
4.569355010986328,-1.2,-5.34,7.21,9.05
4.578973054885864,1.3,-3.23,-4.07,5.35
4.592610120773315,0.15,8.62,2.54,8.98
4.5987958908081055,-2.65,7.03,-8.87,11.62
4.609263896942139,-4.06,5.43,2.37,7.18
4.619157075881958,-0.83,0.07,-4.39,4.46
4.629090070724487,0.58,-0.63,-4.52,4.6
4.642641067504883,0.07,-7.13,-5.18,8.81
4.648355960845947,0.77,-3.52,2.11,4.17
4.658456087112427,1.05,-6.17,4.37,7.63
4.668749094009399,-0.21,-3.67,17.51,17.89
4.678754091262817,-2.03,10.62,0.86,10.84
4.692569017410278,-1.75,6.95,-3.72,8.07
4.698172092437744,0.71,-8.74,-11.1,14.14
4.708169937133789,0.77,5.92,-10.73,12.27
4.719470024108887,-2.23,-6.97,11.89,13.96
4.728394985198975,-0.92,-10.42,16.45,19.49
4.742378234863281,2.72,2.29,7.16,7.99
4.747759103775024,3.93,1.28,-3.53,5.43
4.758240222930908,2.03,0.62,-13.53,13.69
4.769305229187012,-0.45,0.05,-13.57,13.57
4.777903079986572,-2.39,7.91,-3.21,8.86
4.7925519943237305,0.93,-7.21,9.77,12.17
4.797737121582031,2.99,1.77,3.72,5.09
4.807684898376465,0.64,3.29,6.37,7.19
4.817878246307373,-1.42,1.09,-4.41,4.75
4.828176021575928,-0.47,-0.72,-11.07,11.1
4.841297149658203,0.33,0.15,-9.44,9.44
4.847507953643799,0.34,5.47,9.84,11.26
4.857603073120117,0.91,-6.2,14.68,15.96
4.867746114730835,1.99,3.05,5.47,6.57
4.877223968505859,0.32,2.52,-10.42,10.72
4.890552997589111,-2.08,-5.19,-12.21,13.42
4.896997928619385,-1.75,-6.46,0.02,6.69
4.907238006591797,0.57,-6.58,12.58,14.2
4.9171531200408936,2.48,-1.82,11.87,12.26
4.927113056182861,1.73,3.36,0.55,3.81
4.940584182739258,0.5,-0.77,-10.5,10.54
4.9466540813446045,0.46,-6.22,-11.32,12.92
4.957104206085205,-1.25,0.08,-4.11,4.29
4.966615200042725,-2.51,1.64,2.9,4.17
4.977321147918701,1.46,-0.88,5.94,6.17
4.9910502433776855,6.03,-5.65,7.92,11.44
4.996344089508057,4.35,-3.13,-0.23,5.36
5.006724119186401,-0.3,5.55,-4.94,7.43
5.016582012176514,0.37,3.28,0.68,3.37
5.0262451171875,2.74,0.05,-0.14,2.74
5.039041042327881,1.57,-6.8,2.83,7.53
5.046061038970947,-0.62,-0.9,-1.74,2.05
5.056328058242798,0.49,10.66,-9.14,14.05
5.066504955291748,-0.03,1.66,-5.01,5.27
5.076210975646973,0.59,-11.54,10.71,15.75
5.089071035385132,3.5,1.63,7.57,8.49
5.095815181732178,2.16,2.27,2.5,4.0
5.106338977813721,-2.5,11.48,-5.45,12.95
5.115987062454224,-2.03,5.45,-8.1,9.97
5.1258111000061035,1.04,-3.42,-6.09,7.06
5.138611078262329,1.88,-4.64,-5.5,7.43
5.145479202270508,1.31,-3.64,-0.28,3.87
5.155783176422119,3.51,-3.67,7.19,8.8
5.165648937225342,4.67,-0.88,10.29,11.33
5.175689220428467,-0.05,10.31,5.21,11.55
5.188380241394043,-3.71,7.53,3.26,9.0
5.195779085159302,-0.66,-0.21,-10.28,10.3
5.205341100692749,1.08,4.97,-9.15,10.46
5.215693950653076,-3.74,-6.46,-11.19,13.45
5.225519180297852,-4.99,-5.02,-2.36,7.46
5.2391180992126465,-1.33,-3.02,11.54,12.0
5.244933128356934,5.1,-3.7,18.45,19.49
5.255435943603516,1.35,0.0,11.45,11.52
5.264945030212402,-3.56,10.97,-3.88,12.16
5.275557994842529,-3.31,7.46,-18.79,20.48
5.288514137268066,-0.7,-2.99,-8.67,9.19
5.294729232788086,-0.71,-2.41,1.12,2.75
5.305397033691406,-1.61,6.34,0.92,6.6
5.314781188964844,-2.77,-4.56,-4.2,6.79
5.325376987457275,0.75,-4.72,3.28,5.79
5.3391852378845215,4.95,-8.26,19.11,21.39
5.344383239746094,1.75,7.3,3.8,8.41
5.354897975921631,-5.59,8.41,-6.33,11.91
5.364826202392578,-2.77,4.22,-17.35,18.06
5.374545097351074,0.77,0.39,-10.58,10.61
5.38830304145813,3.68,-12.07,-11.44,17.03
5.394192218780518,1.76,-10.58,16.07,19.32
5.404394149780273,3.9,-4.9,20.68,21.6
5.41426420211792,6.54,-2.18,19.27,20.46
5.424476146697998,2.63,2.08,-11.35,11.83
5.438808917999268,-3.84,12.15,-17.94,22.0
5.443824052810669,-1.07,1.72,-7.05,7.33
5.454399108886719,3.61,-6.38,-8.37,11.12
5.464128017425537,2.16,-0.34,-1.81,2.83
5.474291086196899,-4.01,0.41,1.82,4.42
5.4874701499938965,-2.77,-8.12,14.73,17.04
5.493699073791504,3.64,-9.61,23.62,25.75
5.503819942474365,4.78,6.54,6.84,10.6
5.513545989990234,-1.89,17.04,-16.15,23.55
5.524001121520996,-2.77,5.96,-10.57,12.44
5.537517070770264,1.28,-6.27,-14.06,15.44
5.543181896209717,1.91,0.23,-0.88,2.11
5.5539140701293945,-3.05,3.69,17.06,17.71
5.563637018203735,0.47,-1.44,20.67,20.72
5.573533058166504,5.78,-4.93,-3.87,8.52
5.58641505241394,0.74,5.4,-17.24,18.08
5.593051910400391,-4.91,6.51,-17.56,19.36
5.603658199310303,-1.22,-3.33,-3.15,4.74
5.612995147705078,5.59,-3.89,-1.14,6.9
5.6232829093933105,1.57,7.35,5.1,9.08
5.636312961578369,-5.05,-7.96,21.44,23.42
5.642787933349609,0.33,-9.65,4.78,10.77
5.656174182891846,6.71,-0.72,-8.09,10.53
5.662765979766846,0.52,1.91,-17.3,17.41
5.673011064529419,-4.82,16.14,-4.2,17.36
5.686100959777832,-2.76,-2.57,-1.58,4.08
5.692805051803589,5.51,-5.98,6.74,10.56
5.702704906463623,5.55,-4.79,11.29,13.46
5.712680101394653,0.26,-4.14,12.55,13.21
5.722699165344238,-2.55,5.5,1.16,6.17
5.735681056976318,-2.64,3.07,-5.65,6.95
5.7422308921813965,0.65,-4.05,-3.05,5.11
5.755906105041504,4.88,-3.26,-6.1,8.46
5.76207709312439,1.34,2.68,-9.65,10.1
5.772555112838745,-6.08,12.37,-0.34,13.78
5.785908222198486,-5.4,4.61,10.56,12.72
5.791983127593994,4.14,-9.04,7.08,12.2
5.806490898132324,6.58,2.99,-1.45,7.37
5.8118062019348145,-1.06,-3.56,-9.43,10.13
5.822704076766968,-4.38,0.17,-3.85,5.83
5.83577299118042,0.22,1.07,-1.61,1.94
5.841923236846924,3.2,10.73,-7.61,13.53
5.856441020965576,-0.96,-2.08,-3.65,4.3
5.861492156982422,-3.7,-1.79,9.3,10.16
5.872198104858398,3.8,-10.41,5.68,12.45
5.8862690925598145,7.46,-3.82,0.26,8.38
5.89164924621582,-1.86,7.45,-7.37,10.64
5.901423931121826,-5.48,2.83,-11.11,12.7
5.91124701499939,-0.33,-7.84,4.36,8.97
5.921658039093018,1.57,-9.72,-10.24,14.2
5.934834003448486,5.62,0.52,-5.62,7.96
5.941210031509399,-3.89,9.34,1.51,10.22
5.951529026031494,0.25,-0.58,30.75,30.75
5.9611639976501465,6.06,5.31,3.51,8.78
5.971848011016846,0.63,10.76,-10.17,14.81
5.98557710647583,-5.96,-5.54,-4.45,9.27
5.991001129150391,-1.42,-6.89,-7.71,10.43
6.0009400844573975,4.65,-3.94,-5.61,8.28
6.010794162750244,0.33,-3.27,4.18,5.31
6.0212390422821045,-6.89,-4.26,20.53,22.07
6.0345330238342285,-2.77,4.37,-1.92,5.51
6.0405192375183105,3.45,-2.72,0.75,4.45
6.050573110580444,1.6,-0.35,-2.56,3.03
6.061072111129761,-3.18,3.66,-3.49,5.97
6.071042060852051,-0.7,-12.28,14.28,18.84
6.084564208984375,3.1,5.04,-1.98,6.23
6.090322017669678,-0.92,13.55,-7.61,15.56
6.10051703453064,-3.95,-0.31,-8.83,9.67
6.110081195831299,-3.25,0.69,-10.76,11.26
6.120580196380615,1.44,4.81,-14.05,14.92
6.134232997894287,-0.36,-4.17,-6.62,7.83
6.139841079711914,1.88,-5.07,45.75,46.06
6.149946212768555,9.14,7.75,14.58,18.87
6.159759998321533,3.63,16.73,-0.03,17.11
6.170400142669678,-8.42,-11.1,-13.42,19.34
6.182744026184082,-8.26,5.17,-14.0,17.05
6.1906962394714355,4.51,-4.03,-1.0,6.13
6.199541091918945,8.92,-7.6,-8.13,14.26
6.209823131561279,-1.18,4.66,-4.57,6.63
6.219954013824463,-5.45,-8.01,0.29,9.69
6.233837127685547,-2.23,-10.9,5.89,12.58
6.239209175109863,5.04,3.9,3.47,7.25
6.24970817565918,3.89,2.68,-2.13,5.18
6.259459972381592,-0.97,-1.12,-8.96,9.08
6.270127058029175,-4.49,-3.97,-5.12,7.88
6.282651901245117,0.45,-10.38,17.98,20.76
6.289245128631592,6.73,-7.98,22.38,24.69
6.299155235290527,3.58,1.16,11.18,11.79
6.309000015258789,-5.42,17.89,-13.33,22.95
6.320068120956421,-7.45,8.51,-15.88,19.49
6.333065032958984,-0.85,-8.84,-11.7,14.68
6.33909797668457,12.07,1.38,-5.55,13.35
6.348851203918457,6.84,-0.11,-6.23,9.25
6.359054088592529,-1.95,2.28,-2.63,3.98
6.369618892669678,-0.93,-9.3,9.17,13.09
6.383641242980957,6.36,-10.8,19.94,23.55
6.3885111808776855,6.21,19.05,2.13,20.14
6.398386001586914,-5.65,20.84,-8.19,23.09
6.4084649085998535,-7.97,1.73,-16.64,18.53
6.4193010330200195,-0.07,-11.43,-12.42,16.87
6.433110237121582,8.58,-14.38,-2.86,16.98
6.438240051269531,0.84,-2.14,0.73,2.41
6.448414087295532,-6.13,1.92,2.16,6.77
6.458219051361084,0.87,-9.15,27.49,28.98
6.469283103942871,0.91,-9.09,4.99,10.4
6.481910228729248,3.61,12.07,-4.19,13.27
6.488085031509399,-8.93,14.48,-13.48,21.7
6.498079061508179,-9.08,-0.62,-18.99,21.05
6.507894039154053,-2.58,-1.7,1.45,3.41
6.517945051193237,11.74,-7.3,4.04,14.4
6.530411243438721,5.72,-5.84,20.7,22.25
6.5381879806518555,-3.37,-1.87,8.98,9.77
6.548027992248535,-4.85,-4.67,5.69,8.81
6.558087110519409,0.29,0.86,-11.55,11.58
6.567837238311768,-0.39,2.87,-11.09,11.46
6.580296039581299,-3.88,11.85,-17.51,21.49
6.587767124176025,-5.33,19.63,-4.64,20.86
6.597597122192383,1.49,-10.82,7.88,13.46
6.607486009597778,11.07,-12.69,19.82,26.0
6.617433071136475,3.97,0.22,-2.92,4.93
6.629990100860596,-6.73,9.08,-10.64,15.52
6.637289047241211,-2.27,1.74,-1.32,3.15
6.64742112159729,3.56,-12.37,3.07,13.23
6.65736722946167,10.51,-3.86,-3.45,11.71
6.6673102378845215,-3.43,0.27,0.13,3.44
6.6798601150512695,-4.65,-2.92,10.56,11.9
6.687411069869995,3.83,-2.02,4.41,6.18
6.696926116943359,7.0,2.29,-0.27,7.37
6.706911087036133,-2.85,4.46,-5.26,7.46
6.716811180114746,-3.24,9.27,-11.07,14.79
6.729022979736328,3.69,-2.07,-1.6,4.52
6.73707914352417,7.6,-3.15,6.75,10.64
6.746501922607422,-0.41,-10.18,10.49,14.62
6.756793022155762,-3.82,-5.25,-0.75,6.53
6.766602993011475,-0.25,8.23,-8.14,11.57
6.778744220733643,4.17,-5.14,-3.21,7.35
6.786854028701782,5.04,-7.46,0.22,9.0
6.79666805267334,-2.59,13.38,-4.49,14.34
6.806489944458008,-4.18,6.65,12.15,14.46
6.816567897796631,2.56,-5.96,7.86,10.19
6.829869031906128,3.96,3.51,-1.47,5.49
6.836419105529785,-2.69,0.79,-10.97,11.32
6.84589409828186,-2.42,-2.17,-4.57,5.6
6.856239080429077,2.36,-6.57,-5.76,9.05
6.8663649559021,4.02,1.28,0.66,4.27
6.880108118057251,-0.81,-0.42,-3.7,3.81
6.886535167694092,-4.01,7.88,-1.55,8.97
6.895552158355713,4.23,5.85,26.45,27.41
6.906126022338867,7.67,3.52,-3.21,9.02
6.915645122528076,-1.79,8.26,-11.52,14.28
6.9279561042785645,-5.89,-8.82,-13.51,17.17
6.935564994812012,-0.58,-12.5,-3.76,13.06
6.945503234863281,4.46,-0.63,-1.34,4.69
6.955719947814941,-0.59,11.62,-9.84,15.23
6.9656360149383545,-3.58,-1.05,16.83,17.23
6.979250907897949,1.33,-13.84,17.8,22.58
6.9853880405426025,6.6,12.17,-4.96,14.7
6.995026111602783,0.75,9.16,-19.03,21.13
7.0051751136779785,-7.74,-0.09,-14.33,16.28
7.015798091888428,-0.42,-14.31,13.75,19.84
7.029521942138672,7.81,-1.71,8.6,11.74
7.035764217376709,0.65,3.78,18.45,18.84
7.044772148132324,-10.11,3.33,-6.2,12.31
7.055424213409424,-4.6,1.22,-1.82,5.09
7.065214157104492,7.83,-4.79,-15.66,18.15
7.079502105712891,8.62,2.21,5.98,10.72
7.084696054458618,-5.3,2.81,0.0,5.99
7.094507217407227,-10.13,5.95,10.84,15.98
7.1046600341796875,-0.01,-3.29,-3.28,4.64
7.114684104919434,6.41,0.41,-10.74,12.51
7.128270149230957,0.14,2.02,-10.73,10.91
7.134371042251587,-4.45,-3.48,9.71,11.23
7.144287109375,2.86,-5.88,8.36,10.61
7.154611110687256,4.62,5.75,-3.4,8.12
7.164971113204956,-1.0,3.37,13.53,13.97
7.1788330078125,-3.8,-3.3,-10.36,11.51
7.184577941894531,-0.3,3.58,-3.68,5.14
7.193879127502441,2.63,-7.12,-2.5,7.99
7.20442008972168,3.63,5.19,-5.63,8.47
7.213901042938232,-1.33,0.2,-0.36,1.39
7.2273712158203125,-0.23,-3.7,11.17,11.76
7.233808994293213,0.56,9.22,-0.5,9.25
7.244099140167236,-0.49,-0.5,3.67,3.73
7.253942012786865,-0.62,-2.24,-0.86,2.47
7.263791084289551,2.03,-2.43,-3.8,4.94
7.277895927429199,2.22,-3.93,-6.32,7.76
7.283577919006348,-0.12,-2.32,2.25,3.23
7.293716907501221,-1.33,-5.58,7.83,9.7
7.303429126739502,-1.17,2.69,0.16,2.93
7.313838958740234,-1.27,6.13,2.17,6.62
7.32650089263916,-1.7,4.75,0.0,5.04
7.333172082901001,0.39,4.52,-0.29,4.54
7.343213081359863,3.16,-4.69,-5.06,7.58
7.353483200073242,2.33,-0.08,-8.65,8.95
7.363223075866699,-1.61,1.9,-2.4,3.45
7.375952243804932,-2.88,-0.48,2.6,3.9
7.382997989654541,-1.49,-3.25,0.33,3.59
7.393123149871826,0.88,-4.4,-0.7,4.54
7.403417110443115,1.04,-1.16,-0.92,1.8
7.412845134735107,2.08,1.43,16.94,17.12
7.426026105880737,0.05,4.98,2.37,5.51
7.432512044906616,-4.14,6.47,-0.56,7.7
7.44334602355957,-4.87,-0.14,-5.77,7.55
7.4533162117004395,-1.45,-6.11,-5.95,8.65
7.462441921234131,4.24,-6.93,8.97,12.1
7.4757819175720215,6.72,0.93,14.4,15.91
7.482392072677612,2.15,2.74,6.07,6.99
7.492317199707031,-3.86,1.46,-10.82,11.58
7.50291109085083,-4.96,8.62,-12.2,15.73
7.512334108352661,-2.15,-1.3,-11.25,11.52
7.5257182121276855,-0.01,-9.65,-5.65,11.18
7.532334089279175,0.67,-7.52,5.41,9.28
7.542143106460571,0.48,-3.26,-1.89,3.79
7.552659034729004,-0.85,11.15,-2.73,11.51
7.562283992767334,-3.47,14.65,-1.55,15.13
7.575631141662598,-4.14,1.75,-4.22,6.16
7.581818103790283,0.14,-7.63,-3.03,8.21
7.592116117477417,5.0,-6.15,-2.44,8.29
7.601771116256714,3.05,-0.13,0.1,3.05
7.61154317855835,-2.69,2.38,-1.24,3.79
7.625827074050903,-3.36,-7.75,2.94,8.94
7.631556987762451,-2.4,-8.18,7.22,11.17
7.642218112945557,4.72,4.71,-5.26,8.49
7.651365041732788,1.86,2.97,-2.84,4.51
7.66200590133667,-2.13,-0.79,-6.87,7.23
7.6758341789245605,-2.06,2.04,-3.36,4.43
7.681140899658203,2.1,-0.69,-0.09,2.21
7.691571235656738,1.21,-1.6,0.21,2.01
7.70111608505249,-1.09,-2.81,5.06,5.88
7.711453914642334,-2.23,2.81,1.11,3.75
7.724903106689453,0.26,-0.67,-5.49,5.53
7.730804920196533,0.42,-1.64,-2.77,3.24
7.741326093673706,-2.09,7.31,-2.07,7.87
7.7513041496276855,-2.58,2.34,0.38,3.5
7.760815143585205,0.91,-6.32,3.32,7.19
7.774506092071533,1.44,-2.35,5.83,6.44
7.780674934387207,-0.76,-0.35,9.26,9.29
7.791162014007568,-0.41,3.46,1.75,3.89
7.800538063049316,2.25,-0.8,1.85,3.02
7.810714244842529,3.33,-2.3,-0.76,4.11
7.824383020401001,-0.67,3.81,-10.39,11.08
7.830265045166016,-2.67,5.12,16.25,17.24
7.840590953826904,1.25,-1.84,-1.23,2.54
7.851025104522705,0.05,8.17,-10.59,13.37
7.860671043395996,-3.09,-3.35,-2.95,5.42
7.874727010726929,-3.91,2.35,-17.36,17.94
7.880314111709595,0.27,-6.58,2.93,7.2
7.890467166900635,5.48,-7.22,23.82,25.48
7.900304079055786,3.99,-0.07,7.11,8.15
7.910250186920166,-0.15,5.02,6.91,8.54
7.923984050750732,-0.66,-7.79,-5.03,9.29
7.929749011993408,0.42,-5.94,-8.14,10.08
7.940323114395142,3.53,-7.73,15.78,17.92
7.949847221374512,1.1,3.63,3.46,5.13
7.959943056106567,-0.67,-0.49,15.53,15.55
7.973389148712158,0.76,1.46,-5.19,5.44
7.9793970584869385,3.67,-3.07,-0.51,4.81
7.989664077758789,1.28,4.04,-8.85,9.81
7.999430179595947,-2.43,10.79,3.37,11.56
8.009975910186768,-2.03,-0.66,-1.96,2.89
8.02364706993103,1.74,-2.07,5.08,5.75
8.029402017593384,2.82,1.12,-8.03,8.58
8.03938913345337,-2.41,5.72,-4.87,7.88
8.049365997314453,-3.64,0.03,1.02,3.78
8.059535026550293,-1.19,3.38,-11.59,12.13
8.073115110397339,1.3,1.98,-0.53,2.42
8.078907012939453,0.16,-0.19,1.56,1.57
8.089078903198242,-1.81,2.55,3.83,4.94
8.098802089691162,-2.0,1.53,-11.79,12.05
8.109132051467896,-0.46,-7.68,-2.19,7.99
8.122818946838379,-0.28,-2.31,-15.4,15.57
8.12860918045044,0.51,-2.2,4.93,5.42
8.139193058013916,0.95,4.05,15.92,16.45
8.148475170135498,2.67,-3.44,21.98,22.4
8.159372091293335,2.75,-3.86,-4.27,6.37
8.173212051391602,1.33,10.69,-8.8,13.9
8.178713083267212,-4.47,5.81,-26.16,27.16
8.18861722946167,-3.05,-3.39,-13.21,13.97
8.198453903198242,-2.15,1.36,-2.28,3.41
8.208629131317139,-1.76,-9.26,-0.93,9.47
8.222360134124756,4.8,-14.73,47.19,49.66
8.228013038635254,8.06,10.07,8.68,15.54
8.23863410949707,3.21,7.49,-8.61,11.85
8.248164176940918,-11.02,-2.74,-43.16,44.62
8.25830602645874,-5.33,0.17,14.71,15.64
8.272325038909912,1.67,-1.97,8.44,8.82
8.277943134307861,4.32,8.51,-22.59,24.52
8.288265228271484,-4.37,3.21,10.08,11.44
8.297753095626831,-3.05,-14.11,-1.21,14.48
8.30837607383728,1.16,-5.58,19.61,20.42
8.322582244873047,10.01,3.58,5.79,12.1
8.327574014663696,0.21,18.62,-3.04,18.86
8.337777137756348,-10.81,-0.59,-10.13,14.82
8.347402095794678,-7.2,-8.69,-2.1,11.47
8.357861042022705,8.56,0.54,-0.17,8.57
8.371743202209473,7.52,-7.79,-8.1,13.52
8.377548217773438,-2.07,4.04,14.14,14.85
8.390213966369629,-5.62,-8.87,6.45,12.32
8.397473096847534,1.8,1.5,-5.85,6.3
8.407448053359985,1.1,11.16,0.5,11.22
8.421338081359863,-1.55,-1.9,0.36,2.47
8.427016019821167,-1.76,-5.29,-12.26,13.46
8.437867164611816,1.71,-7.07,-11.43,13.54
8.44704818725586,2.0,-11.95,11.16,16.47
8.457273006439209,0.75,1.79,5.28,5.62
8.471177101135254,-5.7,11.86,1.36,13.22
8.476615905761719,-6.87,-2.62,13.01,14.94
8.490723133087158,-0.42,9.94,-8.05,12.79
8.496522903442383,3.35,5.01,-8.95,10.79
8.507256984710693,2.16,-3.87,-6.04,7.49
8.520792961120605,1.72,-5.88,7.33,9.55
8.526636123657227,0.21,-3.26,9.1,9.66
8.540387153625488,-2.53,12.08,7.01,14.19
8.546401023864746,-2.05,2.39,3.98,5.07
8.55674409866333,-1.13,18.49,-29.55,34.87
8.569857120513916,-3.77,7.44,-15.38,17.49
8.576060056686401,-0.64,-18.37,-16.71,24.84
8.589734077453613,4.97,-16.48,3.56,17.57
8.595952033996582,5.23,-8.59,13.4,16.75
8.606518030166626,2.68,-2.82,42.59,42.76
8.620357990264893,-2.82,12.58,16.85,21.21
8.625643014907837,-7.93,4.73,-5.37,10.68
8.640193939208984,-7.7,-3.28,-32.59,33.64
8.645612239837646,-0.93,1.33,-15.96,16.04
8.656405925750732,4.35,-20.85,-5.17,21.91
8.66941213607788,7.18,-16.44,45.76,49.15
8.675771236419678,5.09,4.15,20.02,21.06
8.685831069946289,-3.48,5.95,-7.17,9.94
8.69553804397583,-5.62,-9.31,-16.71,19.93
8.705862998962402,1.34,-3.84,0.34,4.08
8.719362020492554,-2.68,15.68,-23.51,28.38
8.725289106369019,0.83,14.15,-4.94,15.01
8.73526906967163,-1.08,-1.26,-12.19,12.3
8.745505094528198,0.41,-9.72,-4.56,10.74
8.755576133728027,4.88,-9.4,10.08,14.62
8.768885135650635,7.37,-8.67,32.24,34.18
8.774944067001343,1.93,3.39,17.39,17.82
8.785542964935303,-9.12,13.32,-14.93,21.98
8.79480791091919,-7.85,10.18,-16.0,20.52
8.805639028549194,-4.06,-8.89,12.43,15.81
8.81876802444458,16.83,-12.21,-8.2,22.35
8.8246431350708,7.79,5.67,-2.57,9.97
8.835868120193481,-5.58,0.23,1.29,5.73
8.844988107681274,-5.85,-8.07,-5.37,11.32
8.854957103729248,-1.45,-0.74,-4.04,4.35
8.86832308769226,5.48,4.75,0.25,7.25
8.874730110168457,1.61,-0.71,15.12,15.22
8.884335041046143,-2.36,1.85,-0.19,3.0
8.894617080688477,2.37,15.37,-7.19,17.13
8.904705047607422,3.69,6.01,-2.63,7.52
8.9181809425354,-1.61,-7.83,-9.4,12.33
8.92405891418457,-6.13,0.13,0.14,6.13
8.93412709236145,-3.69,-5.43,-2.06,6.88
8.944467067718506,0.49,0.81,15.5,15.52
8.954451084136963,5.87,0.84,6.97,9.15
8.968110084533691,2.61,-11.39,-0.73,11.7
8.973781108856201,-2.74,3.6,-13.63,14.36
8.983973026275635,-4.04,6.16,-6.76,9.99
8.993825912475586,1.69,-5.46,0.99,5.8
9.00452709197998,2.3,-5.3,3.63,6.82
9.017745018005371,-3.28,2.55,3.33,5.32
9.023889064788818,-3.35,4.06,2.09,5.66
9.03355598449707,4.35,-4.46,-13.16,14.56
9.044069051742554,6.19,0.14,-10.58,12.25
9.054303169250488,-1.83,7.3,-12.75,14.8
9.0677330493927,-3.89,-12.01,9.75,15.95
9.073276042938232,2.61,-1.79,32.36,32.51
9.083156108856201,2.66,6.69,-3.48,7.99
9.09332799911499,-3.62,-2.93,-11.03,11.97
9.103858947753906,-0.18,-9.6,-20.74,22.85
9.117008209228516,5.02,-3.77,-5.05,8.05
9.122955083847046,5.51,-1.32,10.99,12.36
9.133427143096924,-1.33,-5.24,23.07,23.69
9.14293622970581,-2.3,-4.51,15.65,16.44
9.154043197631836,0.74,4.09,-8.08,9.08
9.16727590560913,0.24,16.42,-4.91,17.14
9.172647953033447,2.77,1.08,0.87,3.09
9.182768106460571,3.46,2.28,-26.03,26.35
9.192650079727173,0.04,4.8,4.86,6.83
9.203237056732178,-6.14,-2.06,-11.64,13.32
9.21685791015625,-3.62,-0.62,32.0,32.21
9.222405910491943,6.32,-12.96,17.39,22.59
9.232707977294922,3.95,1.04,-0.91,4.18
9.242930889129639,-6.72,10.74,-15.92,20.34
9.25260591506958,-6.06,1.14,-17.35,18.41
9.265682220458984,4.11,-11.0,-9.56,15.14
9.272601127624512,6.92,2.61,-6.99,10.17
9.282373905181885,-2.43,2.01,-1.64,3.55
9.292171955108643,-7.14,-2.62,34.06,34.89
9.302340030670166,2.66,3.83,14.72,15.44
9.315671920776367,6.76,7.71,-16.8,19.68
9.321968078613281,0.75,-4.4,-23.88,24.29
9.332102060317993,-2.49,-9.01,-9.3,13.18
9.341839075088501,1.91,-11.28,19.69,22.77
9.352355003356934,4.21,2.44,17.64,18.29
9.365264892578125,-4.23,10.46,5.38,12.49
9.37215805053711,-6.66,-0.56,-4.83,8.24
9.381526947021484,-0.03,-2.05,-18.68,18.79
9.391847133636475,5.42,0.99,-20.93,21.64
9.40171194076538,0.82,-1.03,7.53,7.64
9.414868116378784,-1.94,-0.95,19.67,19.78
9.421418190002441,1.24,0.93,8.88,9.01
9.431239128112793,0.39,4.67,-6.63,8.11
9.441709995269775,-1.41,-0.88,-2.95,3.38
9.451481103897095,1.94,-3.72,1.09,4.33
9.464492082595825,6.11,-2.02,1.63,6.63
9.471512079238892,0.44,-0.29,-1.0,1.13
9.481389999389648,-6.54,5.51,-8.19,11.84
9.491318225860596,-4.96,17.57,-8.33,20.06
9.50143814086914,0.16,6.41,-11.61,13.26
9.514703035354614,2.43,-14.96,20.86,25.78
9.521569013595581,9.11,-8.21,6.06,13.67
9.530713081359863,3.93,3.12,-4.91,7.02
9.54119610786438,-3.79,8.33,-19.93,21.93
9.550909042358398,-3.93,1.53,18.02,18.5
9.564234018325806,0.36,-11.92,16.15,20.07
9.571386098861694,3.5,10.39,-1.99,11.14
9.58033800125122,-5.98,3.68,-4.81,8.51
9.590670108795166,-3.15,5.1,-20.05,20.92
9.600479125976562,-3.72,-9.28,5.93,11.62
9.61406421661377,8.32,-10.8,-5.93,14.86
9.62086820602417,3.05,7.72,2.37,8.63
9.630402088165283,-8.67,5.5,-11.33,15.29
9.640692234039307,-2.95,-17.94,22.97,29.29
9.650604009628296,5.19,-8.0,10.87,14.46
9.664417028427124,9.04,-1.84,9.39,13.16
9.670676231384277,-5.35,2.25,-3.9,6.99
9.680033206939697,-9.64,3.47,3.77,10.91
9.690053939819336,0.15,-9.65,8.21,12.67
9.699756145477295,7.13,-0.3,-6.69,9.78
9.71298599243164,-1.94,13.57,-6.69,15.25
9.71973204612732,-7.15,8.97,-5.66,12.79
9.72963809967041,-4.68,-2.95,-15.73,16.67
9.740188121795654,4.51,-5.4,-7.7,10.43
9.749763011932373,2.96,1.91,-17.98,18.32
9.763247966766357,-6.08,12.12,-7.35,15.42
9.769608974456787,-0.66,-0.91,50.1,50.11
9.779442071914673,9.15,4.65,3.68,10.9
9.789567947387695,8.65,8.96,-8.28,14.95
9.799599170684814,-4.94,-6.77,-37.07,38.0
9.812870979309082,-2.69,4.7,-16.33,17.2
9.819725036621094,-0.36,4.53,1.18,4.69
9.829092025756836,1.7,-7.9,21.91,23.35
9.839280128479004,-0.25,-3.55,23.67,23.93
9.849394083023071,6.63,-9.28,5.61,12.71
9.862760066986084,6.39,-2.39,-16.98,18.29
9.868901014328003,-2.89,1.76,-10.34,10.87
9.879029035568237,-7.98,-9.13,-1.75,12.25
9.889191150665283,-2.32,-7.83,11.2,13.86
9.89858102798462,3.58,4.45,11.39,12.74
9.91132116317749,2.21,-0.02,11.7,11.9
9.918531894683838,-0.56,-9.72,0.61,9.75
9.929665088653564,-0.7,6.98,-12.54,14.36
9.938982009887695,-2.54,3.5,-15.53,16.12
9.948354244232178,-3.59,4.54,-3.22,6.62
9.961603164672852,-1.83,-0.44,8.87,9.06
9.96829891204834,2.08,-7.32,13.62,15.6
9.978206157684326,3.34,0.21,4.16,5.33
9.988380908966064,0.94,2.76,-8.31,8.8
9.998373985290527,-2.94,1.11,-14.34,14.68
10.01169490814209,-1.91,-1.94,5.75,6.36
10.01828908920288,2.46,-0.09,3.91,4.62
10.027953147888184,3.07,0.26,3.88,4.95
10.038474082946777,0.69,0.0,-5.89,5.93
10.048151016235352,-1.38,7.16,-15.9,17.49
10.061398983001709,-1.92,3.73,-1.75,4.54
10.067720890045166,-0.45,2.01,5.99,6.33
10.077994108200073,1.38,2.13,7.03,7.47
10.087868213653564,0.8,1.22,-8.67,8.79
10.09746503829956,-2.92,7.74,-15.52,17.58
10.111196041107178,-4.88,-9.39,-1.99,10.76
10.117391109466553,-0.92,-12.02,15.77,19.84
10.12757396697998,5.6,1.44,8.14,9.98
10.137830018997192,3.22,-2.98,0.36,4.4
10.147459983825684,-2.7,-2.26,-4.71,5.88
10.161432027816772,-2.53,-0.24,-2.94,3.88
10.167448997497559,3.09,3.58,9.61,10.71
10.1771821975708,3.38,7.08,5.69,9.69
10.18788194656372,-2.21,7.01,-2.17,7.66
10.197212219238281,-3.52,-4.78,-7.22,9.34
10.211123943328857,0.0,-9.8,-2.3,10.06
10.216880083084106,2.98,2.28,1.87,4.19
10.226912021636963,-0.66,4.19,2.0,4.68
10.237382888793945,-1.12,-6.12,-1.61,6.42
10.24704909324646,0.6,2.12,-0.83,2.35
10.26102590560913,0.16,-1.43,1.16,1.84
10.266511917114258,0.11,-5.54,5.1,7.53
10.277368068695068,1.28,4.88,4.87,7.01
10.286463022232056,0.4,3.53,4.27,5.55
10.297047138214111,1.8,-4.88,-1.92,5.54
10.310506105422974,3.3,-2.85,-3.52,5.6
10.316068172454834,1.19,3.52,-0.67,3.77
10.326673984527588,-1.63,10.26,-3.55,10.97
10.336343050003052,-0.48,-4.07,-4.06,5.76
10.346126079559326,3.05,-6.71,2.85,7.9
10.359573125839233,2.74,1.4,2.3,3.84
10.366065979003906,-2.44,3.67,3.34,5.52
10.376325130462646,-4.77,4.26,-3.83,7.45
10.386195182800293,-3.24,2.14,-9.99,10.71
10.395727157592773,-0.78,-7.2,-8.72,11.33
10.409329891204834,1.92,-0.98,-3.95,4.49
10.415616989135742,2.89,6.67,9.13,11.67
10.425909996032715,1.11,-2.31,10.35,10.66
10.435781002044678,-3.57,4.75,-2.67,6.51
10.445888042449951,-3.02,-4.78,-10.51,11.93
10.45967411994934,2.87,-3.82,-7.62,8.99
10.46540904045105,6.24,-4.58,4.28,8.84
10.475543975830078,2.09,-0.53,9.52,9.76
10.485300064086914,-4.57,11.43,1.13,12.36
10.495952129364014,-2.89,-7.0,-3.55,8.36
10.509931087493896,4.04,-7.59,-6.16,10.57
10.515367984771729,6.65,-0.67,7.74,10.22
10.525625228881836,-1.0,1.17,17.79,17.85
10.535522937774658,-6.38,4.01,7.81,10.85
10.545306205749512,-2.56,6.33,-12.17,13.95
10.55932092666626,2.24,1.19,-20.0,20.16
10.56482219696045,5.08,2.06,-19.87,20.61
10.575013160705566,5.31,-2.89,3.52,6.99
10.584933042526245,-2.7,-3.98,14.03,14.83
10.595005989074707,-4.85,2.82,8.02,9.78
10.608696937561035,0.6,-1.16,-7.25,7.36
10.614502906799316,4.7,-9.38,-3.44,11.04
10.625081062316895,2.11,0.01,0.2,2.11
10.634673118591309,-2.06,1.62,10.56,10.88
10.645387172698975,-0.76,-0.56,5.12,5.2
10.659600019454956,3.07,6.43,2.14,7.43
10.664309978485107,1.49,1.36,-9.59,9.79
10.674447059631348,0.44,-4.99,-2.71,5.69
10.684240102767944,2.08,2.32,-8.09,8.66
10.69460391998291,0.22,5.7,-14.27,15.36
10.708488941192627,-0.42,-7.49,1.97,7.75
10.714156150817871,2.7,-12.41,14.61,19.35
10.724486112594604,7.03,-0.9,12.82,14.64
10.734350204467773,1.22,3.6,1.73,4.17
10.74397611618042,-3.75,6.34,-6.9,10.09
10.75806212425232,-0.62,3.04,-6.84,7.51
10.763708114624023,5.27,-8.02,-4.92,10.78
10.774090051651001,3.67,-0.19,0.72,3.74
10.783675193786621,-1.91,1.9,8.45,8.86
10.793920040130615,0.67,-11.91,8.96,14.91
10.808109045028687,4.93,2.34,-9.54,10.99
10.813393115997314,2.56,2.83,-7.53,8.44
10.823675155639648,-5.46,-0.28,-2.26,5.91
10.83351993560791,-6.0,0.79,6.07,8.57
10.84367322921753,4.11,-7.3,13.45,15.84
10.857169151306152,6.93,-0.95,-3.86,7.98
10.863433122634888,-0.52,8.49,-3.8,9.31
10.873556137084961,-5.17,0.57,6.45,8.28
10.88333797454834,-2.86,5.9,1.61,6.75
10.893482208251953,2.7,2.22,-6.13,7.05
10.907058238983154,4.02,-7.65,-10.89,13.9
10.91291093826294,0.92,7.21,-15.05,16.71
10.92335319519043,-3.41,12.53,-15.41,20.15
10.93314003944397,-2.7,-2.2,16.98,17.33
10.943169116973877,8.19,-15.5,33.51,37.81
10.95696210861206,15.31,0.2,14.47,21.06
10.96275520324707,-2.32,9.28,-15.68,18.36
10.972865104675293,-11.64,4.86,-6.79,14.32
10.982449054718018,-8.45,-7.09,4.34,11.85
10.993206024169922,3.74,-4.93,-4.93,7.91
11.007212162017822,2.72,1.41,-5.55,6.33
11.012557029724121,-0.17,3.76,1.08,3.91
11.02289605140686,3.67,-4.66,-1.16,6.04
11.032701015472412,3.44,2.78,1.89,4.8
11.042680025100708,-4.2,7.43,3.21,9.11
11.05686902999878,-5.22,3.05,5.52,8.18
11.061952114105225,2.27,-4.11,5.6,7.3
11.072374105453491,4.99,-3.09,-3.63,6.9
11.081942081451416,-0.78,0.18,-10.11,10.14
11.092389106750488,-2.7,1.03,-14.06,14.35
11.105977058410645,-1.36,-2.6,-3.67,4.69
11.111663103103638,-0.05,-4.14,-10.67,11.44
11.12494421005249,0.44,6.68,0.1,6.69
11.131615161895752,-2.49,-1.78,33.55,33.68
11.14235806465149,5.64,3.0,5.84,8.65
11.155633926391602,5.91,5.99,-16.35,18.38
11.161448955535889,-4.46,-1.17,-16.21,16.85
11.174954891204834,-5.98,-7.43,11.04,14.58
11.18134593963623,-0.88,2.65,10.42,10.78
11.19178819656372,4.65,1.24,-5.08,6.99
11.204870223999023,2.47,-4.53,-4.2,6.65
11.211112976074219,2.02,-5.29,1.31,5.81
11.22473406791687,-1.04,4.41,0.72,4.58
11.231252193450928,-5.65,6.05,-1.56,8.42
11.241543054580688,-6.11,5.72,-2.15,8.64
11.254298210144043,-2.59,-1.02,-6.14,6.74
11.261152029037476,0.86,-5.95,9.2,10.99
11.274753093719482,1.67,0.68,5.84,6.11
11.280735969543457,-0.5,0.97,5.08,5.19
11.291485071182251,-0.94,-2.87,-0.12,3.02
11.304425239562988,-0.08,-1.74,-3.61,4.0
11.310832977294922,-1.76,0.93,5.74,6.07
11.324271202087402,-2.61,4.95,5.28,7.69
11.330440044403076,0.41,2.89,0.29,2.93
11.340731143951416,1.06,4.4,-6.53,7.94
11.353686094284058,-1.02,-3.15,-13.41,13.81
11.360323905944824,-2.51,1.78,-13.55,13.89
11.374711036682129,0.31,-1.32,-1.26,1.85
11.380291938781738,2.65,-6.39,12.31,14.12
11.390613079071045,1.92,1.98,7.41,7.9
11.403752088546753,0.08,-3.59,6.69,7.59
11.409991025924683,0.49,-1.57,0.89,1.87
11.42038607597351,0.54,8.04,-3.42,8.75
11.430310010910034,1.77,-6.13,-7.41,9.77
11.440742015838623,0.25,13.15,-16.51,21.1
11.453970909118652,2.28,-4.6,-3.8,6.38
11.459773063659668,5.14,-20.57,9.32,23.16
11.469690084457397,2.01,-2.91,18.43,18.76
11.479712963104248,-1.82,-13.16,15.23,20.21
11.490089893341064,1.56,7.93,7.51,11.03
11.503465175628662,0.33,9.09,-22.29,24.07
11.50960922241211,-1.5,-2.35,-15.53,15.77
11.519687175750732,5.43,2.71,7.33,9.51
11.529921054840088,3.19,10.59,-10.28,15.09
11.539748191833496,-1.22,-0.32,11.91,11.97
11.553165912628174,-10.94,-4.24,2.48,11.99
11.55915117263794,-2.52,-2.32,5.02,6.07
11.569802045822144,6.29,-1.04,-10.15,11.98
11.579104900360107,4.69,13.64,-9.39,17.21
11.589407920837402,-2.82,9.45,-7.76,12.54
11.603352069854736,-4.18,1.24,12.33,13.07
11.60889720916748,-3.16,0.61,-0.23,3.22
11.61888599395752,-1.2,-8.21,-8.94,12.19
11.629216194152832,-0.07,9.35,-8.45,12.6
11.639144897460938,2.4,1.67,-9.66,10.09
11.653096199035645,7.13,-22.0,3.02,23.32
11.658907890319824,8.89,-20.85,49.21,54.17
11.668568134307861,-2.18,14.94,-0.17,15.09
11.678946018218994,-8.85,18.21,-2.92,20.45
11.688976049423218,-2.81,-17.0,-31.17,35.61
11.703105926513672,5.94,-21.89,-8.0,24.05
11.708303928375244,3.32,14.69,-2.4,15.25
11.718637943267822,-9.12,6.75,25.15,27.59
11.728284120559692,-4.84,-23.94,25.24,35.12
11.738863945007324,6.31,9.56,-12.08,16.64
11.75259017944336,1.67,6.06,-19.91,20.87
11.758203029632568,-3.37,3.59,-15.44,16.2
11.768259048461914,-2.73,5.3,3.15,6.74
11.778221130371094,4.78,-8.16,9.84,13.64
11.789446115493774,6.98,1.05,17.1,18.49
11.804017066955566,2.33,9.55,-7.23,12.2
11.808051109313965,-1.27,5.27,-0.84,5.48
11.818145036697388,-2.75,-1.99,-16.04,16.39
11.828063011169434,-2.94,7.82,-7.68,11.34
11.838397026062012,-0.79,-11.69,-4.07,12.4
11.852760076522827,4.79,-9.95,16.15,19.56
11.857506036758423,2.72,4.22,2.67,5.68
11.867398023605347,-2.88,9.08,4.47,10.52
11.877541065216064,-6.11,11.08,-9.83,16.02
11.887969017028809,-2.66,-5.66,-2.12,6.6
11.902387142181396,5.37,-13.56,-6.69,16.04
11.907195091247559,4.3,3.91,-0.58,5.84
11.917647123336792,-3.77,8.74,11.85,15.19
11.927473068237305,-4.04,-1.12,1.7,4.52
11.93742322921753,1.42,-14.41,3.21,14.83
11.951673984527588,0.36,10.91,-4.62,11.85
11.956895112991333,-4.24,2.27,-7.23,8.68
11.967206954956055,-4.69,-5.05,-13.05,14.75
11.97692608833313,-0.64,4.31,4.84,6.51
11.987065076828003,0.17,-9.79,8.96,13.27
12.00104808807373,-1.99,-1.59,17.61,17.79
12.007068157196045,0.0,4.91,7.93,9.32
12.01668119430542,1.41,6.5,-6.67,9.41
12.027249097824097,-2.2,0.44,-11.62,11.83
12.0367910861969,-0.61,-13.01,-10.98,17.03
12.050493240356445,1.56,9.35,-15.5,18.16
12.056591033935547,-3.85,26.5,-15.26,30.82
12.066533088684082,-4.93,-1.43,19.04,19.71
12.076319217681885,6.19,-28.9,34.88,45.71
12.086525917053223,17.86,2.37,-1.72,18.09
12.100466012954712,-3.86,16.74,-14.15,22.25
12.106343030929565,-13.56,-0.25,-27.25,30.43
12.116394996643066,-3.94,-5.52,4.22,7.98
12.126390933990479,-3.98,-11.11,22.13,25.08
12.136216163635254,12.16,-22.8,31.86,41.02
12.15004301071167,-2.19,15.95,-19.03,24.92
12.156270980834961,-3.1,13.98,-28.61,31.99
12.166189193725586,-0.94,-14.59,9.59,17.48
12.176155090332031,-3.43,2.1,-9.92,10.7
12.185963153839111,9.79,12.34,-0.9,15.77
12.200386047363281,2.24,-8.1,1.29,8.5
12.205842971801758,-3.7,1.11,9.81,10.54
12.215503215789795,-3.69,-7.55,2.37,8.73
12.225553035736084,1.14,-2.0,-9.25,9.53
12.235730171203613,-3.0,13.39,-14.39,19.88
12.250195026397705,-3.91,-0.97,-7.13,8.18
12.255691051483154,-1.9,-18.84,18.61,26.54
12.265742063522339,6.93,-3.83,16.93,18.69
12.275207996368408,0.67,7.33,8.07,10.92
12.285634994506836,-6.79,15.75,-4.29,17.67
12.299854040145874,-5.63,-3.38,-10.16,12.09
12.30593490600586,-0.17,3.14,-9.23,9.75
12.315327167510986,2.21,-3.3,-3.82,5.51
12.325637102127075,0.3,-8.32,-2.91,8.81
12.335005044937134,1.37,-2.43,7.15,7.67
12.34873104095459,3.32,-1.28,8.16,8.9
12.355191230773926,-1.1,-2.61,-0.48,2.87
12.365034103393555,-3.73,9.34,-5.48,11.45
12.374815940856934,0.57,5.45,-0.55,5.5
12.384754180908203,2.69,-1.79,-3.62,4.85
12.398838996887207,1.48,6.24,-3.32,7.22
12.4046790599823,1.77,-5.82,-6.15,8.65
12.414676189422607,0.53,-9.13,-11.97,15.06
12.424839973449707,-1.48,0.94,-6.33,6.56
12.434731006622314,0.28,-1.41,8.5,8.62
12.448925018310547,4.66,-14.57,31.31,34.84
12.455367088317871,3.07,-0.76,4.86,5.79
12.464094161987305,-5.32,19.93,-6.57,21.64
12.47476601600647,-1.49,2.61,-5.66,6.4
12.484289169311523,8.38,-18.02,-6.07,20.77
12.498440027236938,8.24,4.39,-5.55,10.86
12.504134178161621,-5.82,21.17,0.66,21.96
12.513835906982422,-6.61,-11.06,13.14,18.4
12.524302959442139,5.38,-14.7,5.84,16.7
12.534092903137207,10.23,6.47,-6.51,13.74
12.548285961151123,-2.78,10.53,6.38,12.62
12.5537850856781,-3.15,-5.86,11.21,13.03
12.564258098602295,7.6,-2.99,-3.79,9.0
12.573722124099731,2.12,12.85,-17.7,21.97
12.584051132202148,-3.18,-4.13,-17.2,17.97
12.598330020904541,0.14,-12.85,12.76,18.1
12.603437900543213,-2.8,6.77,-9.94,12.34
12.613393068313599,-0.99,-1.08,10.05,10.15
12.623682975769043,4.44,-7.56,5.85,10.53
12.633484125137329,6.91,5.58,-10.15,13.48
12.647601127624512,-0.6,12.6,-14.95,19.56
12.653228044509888,-2.69,-0.32,6.82,7.33
12.663010120391846,-0.04,2.04,-1.14,2.33
12.673229217529297,3.54,-4.88,9.53,11.27
12.683200120925903,-1.33,-6.17,-0.63,6.34
12.69750690460205,-3.06,0.51,-0.2,3.1
12.702817916870117,3.64,-5.27,6.81,9.34
12.713099956512451,10.71,-1.06,9.49,14.34
12.723042964935303,2.78,8.97,-12.13,15.34
12.733011245727539,-5.72,-5.33,9.53,12.32
12.747703075408936,-2.09,-3.29,11.02,11.68
12.752828121185303,3.93,8.39,2.04,9.48
12.7625150680542,0.31,-0.94,-5.51,5.59
12.773917198181152,-2.42,-4.71,-19.13,19.84
12.782645225524902,-0.21,4.04,-14.47,15.02
12.797033071517944,3.57,-9.63,-1.78,10.42
12.802235126495361,5.74,-9.74,18.54,21.71
12.812285900115967,1.48,0.44,8.17,8.31
12.822855949401855,-5.85,24.2,-8.28,26.23
12.832447052001953,-1.1,21.35,-21.75,30.49
12.846504211425781,0.33,-27.24,7.83,28.34
12.852142095565796,7.15,-5.9,-8.89,12.84
12.86228609085083,3.81,17.02,0.7,17.45
12.872541904449463,-5.38,-3.57,-4.09,7.64
12.882091045379639,3.63,-13.95,15.55,21.2
12.896684169769287,6.11,-3.82,12.65,14.55
12.901546955108643,-2.68,9.13,1.8,9.68
12.911778926849365,-10.62,5.24,9.7,15.3
12.921950101852417,1.61,3.61,-12.58,13.18
12.932209014892578,7.98,1.21,-13.66,15.86
12.946859121322632,4.42,-6.24,10.55,13.02
12.951632976531982,-0.61,-9.34,8.05,12.34
12.961696147918701,-1.04,2.92,5.65,6.44
12.972399234771729,-0.57,0.29,-1.96,2.06
12.98156213760376,0.0,-4.21,3.08,5.21
12.996217012405396,-1.94,-2.04,-11.28,11.62
13.00114393234253,-4.59,11.33,-2.81,12.54
13.011237144470215,-1.87,9.59,7.19,12.13
13.021993160247803,2.67,3.83,-5.38,7.12
13.031353950500488,1.16,8.83,-4.48,9.96
13.046571016311646,-1.01,-4.69,-6.0,7.68
13.05080795288086,1.02,-7.56,11.72,13.98
13.061439990997314,3.88,1.51,5.85,7.18
13.070759057998657,0.55,11.04,4.1,11.78
13.081357955932617,-3.05,5.45,-2.51,6.73
13.096792221069336,0.15,0.77,-15.54,15.55
13.100693225860596,2.52,-3.37,-19.33,19.78
13.110960960388184,-1.07,-9.08,-10.14,13.65
13.12068510055542,-6.52,8.13,3.27,10.92
13.1304190158844,-5.42,-5.8,28.62,29.7
13.145457029342651,7.46,-17.8,29.58,35.31
13.150269985198975,7.34,5.55,0.84,9.24
13.16054105758667,-6.8,-2.35,-8.13,10.85
13.170213222503662,-12.3,12.16,-25.03,30.42
13.180427074432373,-13.23,6.32,12.53,19.28
13.194825172424316,4.51,-23.51,-12.81,27.15
13.199913024902344,15.03,-2.22,0.21,15.19
13.210705041885376,-0.82,10.66,-3.18,11.15
13.22012710571289,-12.28,-2.87,14.36,19.11
13.230412006378174,-9.33,-1.91,0.0,9.52
13.24487018585205,2.99,3.58,1.74,4.97
13.250061988830566,1.84,-0.06,-6.85,7.09
13.25979995727539,-4.72,4.02,-8.77,10.74
13.269598960876465,-3.3,-1.0,-3.89,5.19
13.279890060424805,0.79,-5.45,-2.18,5.92
13.294207096099854,2.95,-0.08,15.2,15.48
13.299280166625977,-3.43,10.19,6.51,12.56
13.309601068496704,-2.26,11.53,-0.65,11.76
13.319156169891357,-1.6,0.5,-25.68,25.73
13.329747200012207,-1.34,-5.65,-14.75,15.85
13.344199180603027,-0.96,-6.4,-4.44,7.84
13.349179029464722,-2.19,-0.66,-10.96,11.19
13.359753131866455,-3.48,-9.01,29.0,30.56
13.368957996368408,2.96,-11.91,24.43,27.33
13.37934398651123,9.56,-1.07,1.25,9.7
13.394082069396973,-6.26,2.11,-14.91,16.3
13.398736000061035,-13.58,5.09,-13.47,19.79
13.409056186676025,-6.96,-5.08,-10.93,13.91
13.418540954589844,6.04,2.71,17.0,18.24
13.429100036621094,6.68,-11.36,20.65,24.49
13.443686962127686,0.44,6.27,4.28,7.6
13.448821067810059,-4.19,7.84,-6.69,11.12
13.458698034286499,-1.46,-6.16,-8.06,10.24
13.468784093856812,1.62,5.27,-13.04,14.15
13.478713989257812,4.49,-1.88,26.68,27.12
13.493231058120728,-2.01,7.91,3.9,9.04
13.498179912567139,-3.26,9.6,10.5,14.59
13.5088050365448,2.62,-7.4,-2.87,8.35
13.518342018127441,3.61,-4.65,-10.4,11.95
13.528543949127197,-3.41,2.63,6.31,7.63
13.543190002441406,-3.37,1.29,9.22,9.9
13.547997951507568,4.06,-1.58,0.12,4.35
13.55876111984253,2.51,-5.0,-6.61,8.65
13.567960023880005,-3.32,-7.62,-2.2,8.59
13.5785551071167,-7.6,-2.66,-4.39,9.17
13.592976093292236,-2.73,8.5,-0.05,8.92
13.598148107528687,1.23,-0.45,-6.32,6.45
13.608005046844482,1.29,-3.61,20.82,21.16
13.617991924285889,-0.73,5.68,-11.1,12.49
13.627954006195068,-1.25,9.83,-14.57,17.62
13.642343044281006,3.7,-9.88,-1.18,10.61
13.647561073303223,3.76,-11.62,-12.56,17.51
13.65781307220459,1.74,0.2,21.51,21.58
13.667530059814453,1.02,2.5,14.13,14.38
13.677776098251343,-3.79,21.6,-23.36,32.04
13.692137241363525,-1.54,-12.66,-1.23,12.81
13.697081089019775,-3.59,-7.18,-20.75,22.24
13.707852125167847,0.19,5.02,5.08,7.14
13.717220067977905,4.38,-9.93,7.59,13.24
13.727222919464111,0.62,6.26,7.74,9.97
13.741228103637695,-4.78,0.35,-11.02,12.01
13.746871948242188,-3.54,-9.91,4.43,11.41
13.758013010025024,5.41,-6.74,-5.42,10.2
13.766753196716309,5.37,3.24,-2.3,6.68
13.77719497680664,-6.57,11.13,6.9,14.65
13.791676998138428,-8.94,4.82,5.44,11.52
13.796840190887451,1.92,-0.79,1.09,2.34
13.806714057922363,6.55,-6.17,5.92,10.77
13.81687593460083,-0.94,6.65,-8.86,11.11
13.826828956604004,-6.89,5.7,-6.84,11.25
13.84147310256958,-2.23,-6.78,-7.7,10.49
13.846283912658691,6.03,-9.66,2.85,11.73
13.856801986694336,5.63,-10.11,15.32,19.19
13.86611795425415,-7.78,-5.7,6.05,11.38
13.876633167266846,-9.95,11.6,4.39,15.9
13.890743017196655,3.06,1.21,1.92,3.8
13.895982027053833,11.93,-18.58,3.32,22.32
13.908967018127441,1.93,0.75,-3.22,3.82
13.916255950927734,-7.28,12.75,2.3,14.86
13.926477909088135,-0.17,-3.45,-8.3,8.99
13.940237998962402,6.07,-8.65,-1.5,10.67
13.946030139923096,0.31,-1.98,-5.96,6.28
13.959326028823853,-7.97,4.96,-10.08,13.77
13.965939044952393,-1.29,7.96,-1.38,8.18
13.9760160446167,9.96,2.06,7.37,12.56
13.989711046218872,10.34,-1.14,11.63,15.6
13.995383024215698,-5.89,3.57,-4.04,7.98
14.008912086486816,-8.12,4.98,-4.25,10.43
14.015303134918213,1.85,-8.25,-0.66,8.48
14.025883197784424,7.28,-0.26,-5.27,8.99
14.040179014205933,-1.23,16.29,-8.02,18.19
14.045274019241333,-5.34,7.36,9.58,13.2
14.05883502960205,-3.64,-4.82,5.83,8.39
14.06502914428711,4.47,-3.64,-9.5,11.11
14.075804233551025,1.16,6.77,-18.79,20.0
14.090243101119995,-1.41,3.97,-1.07,4.34
14.095088005065918,3.94,-12.45,25.71,28.83
14.105213165283203,-0.87,3.32,2.08,4.01
14.115283012390137,-4.55,-8.7,2.02,10.02
14.125288963317871,-2.47,4.7,-9.63,10.99
14.139344215393066,5.0,6.03,-9.48,12.29
14.144649982452393,3.67,-11.68,9.92,15.75
14.154773235321045,-8.16,6.02,4.22,10.98
14.164577007293701,-8.21,-0.02,-1.26,8.3
14.17503809928894,2.95,-2.94,-4.55,6.16
14.189302921295166,5.38,-0.16,-12.81,13.89
14.194302082061768,-1.45,-7.49,12.64,14.76
14.204957962036133,-6.1,-3.79,26.56,27.51
14.214241981506348,2.18,4.53,18.56,19.22
14.225037097930908,4.88,-3.12,-11.88,13.21
14.239387035369873,-1.8,4.22,-22.08,22.55
14.244357109069824,-6.14,-6.03,5.89,10.42
14.254003047943115,-2.66,-5.27,-4.8,7.6
14.263921022415161,0.21,6.67,-2.24,7.03
14.274537086486816,1.98,-2.77,-11.09,11.6
14.28907299041748,3.16,-3.31,-6.39,7.85
14.293713092803955,4.04,0.01,14.44,14.99
14.304038047790527,2.3,10.69,8.49,13.84
14.313951969146729,-2.49,6.58,-1.74,7.24
14.324120998382568,-4.22,-2.7,-7.37,8.91
14.338551044464111,0.34,-4.32,-7.96,9.06
14.343463897705078,4.27,-0.02,-4.37,6.1
14.353953123092651,2.87,-9.03,0.12,9.47
14.363425016403198,0.36,-10.03,2.93,10.45
14.374020099639893,1.71,-6.45,7.66,10.15
14.388714075088501,4.44,0.3,13.74,14.44
14.393145084381104,2.67,14.51,10.72,18.23
14.40348196029663,-2.33,10.3,-3.58,11.15
14.413113117218018,-3.65,6.93,-24.45,25.67
14.423549175262451,-0.45,-0.77,-24.74,24.75
14.437990188598633,1.77,-12.29,-12.54,17.64
14.443283081054688,-0.29,-11.93,6.64,13.65
14.45282506942749,0.47,-13.38,34.96,37.43
14.463107109069824,3.23,8.72,4.67,10.4
14.473427057266235,0.95,12.99,-1.46,13.1
14.488044023513794,-5.76,-8.76,-12.61,16.39
14.492784976959229,-7.96,9.29,-5.96,13.6
14.502673149108887,1.16,0.38,-9.16,9.24
14.51298713684082,3.77,-14.44,1.57,15.0
14.523382186889648,0.27,1.06,7.91,7.98
14.538016080856323,-3.82,-1.6,-0.44,4.16
14.542367935180664,-2.99,-6.46,23.31,24.37
14.552772998809814,2.35,4.46,-4.67,6.87
14.562341213226318,4.43,3.5,1.44,5.82
14.573307037353516,-1.81,9.88,-18.43,20.98
14.588162899017334,-6.84,8.69,-7.69,13.46
14.592305183410645,-1.23,-9.56,18.35,20.72
14.60229206085205,6.64,6.55,4.91,10.54
14.61229419708252,2.29,-7.75,4.3,9.15
14.622294902801514,-2.32,-1.26,-1.1,2.86
14.63714599609375,-3.89,5.58,-19.7,20.84
14.641870975494385,-0.53,2.08,-3.09,3.76
14.651700019836426,0.18,-2.03,-0.49,2.09
14.662095069885254,0.38,-8.35,17.75,19.61
14.671993017196655,1.02,5.22,-7.52,9.21
14.686528205871582,-0.66,16.82,-13.46,21.55
14.691500186920166,3.33,-4.17,6.76,8.61
14.7018461227417,5.39,-11.11,-4.19,13.03
14.711541175842285,0.88,2.59,-0.4,2.76
14.721765041351318,-3.77,-0.84,1.05,4.0
14.737010955810547,-2.88,2.21,-1.69,4.0
14.741260051727295,8.06,-9.89,22.92,26.23
14.751574993133545,7.68,-1.51,3.65,8.63
14.761248111724854,-5.15,11.09,6.96,14.06
14.771671056747437,-5.17,10.66,-1.6,11.95
14.786932945251465,5.71,-12.48,-16.63,21.56
14.79125690460205,7.65,-4.69,-8.8,12.56
14.800899028778076,-4.07,-4.66,-4.63,7.72
14.811569213867188,-6.82,-2.57,0.07,7.28
14.82114315032959,4.22,2.55,-0.38,4.94
14.83619499206543,6.52,-8.09,15.08,18.31
14.840842008590698,-0.67,14.74,-3.87,15.25
14.851092100143433,-10.6,9.01,1.1,13.95
14.860785007476807,0.06,-7.0,-10.4,12.53
14.870836019515991,9.51,0.58,-3.02,9.99
14.88585090637207,3.04,-1.84,-4.33,5.6
14.89033317565918,-7.93,3.34,7.88,11.66
14.901001930236816,-2.47,-13.3,23.98,27.53
14.91068696975708,8.39,-4.44,-0.57,9.5
14.920874118804932,0.0,14.21,-17.32,22.4
14.936337947845459,-8.21,4.04,-6.75,11.37
14.940396070480347,-3.38,-6.7,-9.26,11.91
14.950300216674805,7.73,-8.04,1.98,11.32
14.960522174835205,4.31,-0.49,12.93,13.63
14.96996021270752,-0.86,5.02,6.25,8.06
14.983752012252808,3.13,-15.76,4.15,16.59
14.990458011627197,3.86,3.38,-4.36,6.73
15.000173091888428,-0.52,7.18,-3.37,7.94
15.010195016860962,2.89,-1.97,9.78,10.38
15.019967079162598,7.57,-10.58,-2.79,13.3
15.034167051315308,2.58,6.56,-3.69,7.95
15.040339946746826,-5.62,15.91,-0.73,16.88
15.04972505569458,-4.14,-7.72,8.93,12.5
15.05969524383545,3.13,-8.76,1.37,9.4
15.069630146026611,3.55,14.07,-10.09,17.67
15.084242105484009,-2.02,2.14,-3.74,4.75
15.089962005615234,0.65,-2.17,0.14,2.26
15.099353075027466,2.96,2.76,-1.57,4.34
15.109683990478516,-2.13,-3.91,-6.86,8.17
15.119294166564941,-4.88,16.75,-12.06,21.2
15.133975982666016,0.47,7.12,-18.21,19.55
15.140131950378418,-1.33,-13.17,-2.76,13.52
15.148911952972412,4.35,-15.14,37.64,40.8
15.15933895111084,14.04,-5.56,12.2,19.41
15.169061183929443,1.22,12.75,-2.87,13.12
15.183948040008545,-7.86,4.76,-21.96,23.8
15.189216136932373,-4.48,-12.55,3.71,13.83
15.198578119277954,2.74,-23.15,17.11,28.91
15.209110021591187,9.41,16.41,-8.11,20.58
15.218766212463379,-8.59,16.76,4.92,19.46
15.233663082122803,-7.63,-9.94,-14.41,19.09
15.238582134246826,5.46,1.85,-7.38,9.36
15.248996019363403,9.9,-4.58,5.23,12.09
15.258584976196289,0.73,11.17,5.38,12.41
15.268847942352295,-8.12,13.31,-7.08,17.12
15.283582210540771,-1.71,-8.86,-11.46,14.58
15.288339138031006,4.13,-20.45,22.5,30.68
15.298418045043945,6.87,-4.16,6.22,10.15
15.308563232421875,-7.37,15.6,13.87,22.13
15.318311214447021,-5.29,4.43,-0.65,6.93
15.332657098770142,6.46,-6.81,-8.84,12.89
15.338088035583496,6.91,3.24,-21.64,22.94
15.347836017608643,-4.06,-0.68,0.2,4.12
15.358312129974365,-4.65,-12.22,8.71,15.71
15.368076086044312,1.51,6.64,11.8,13.62
15.382537126541138,4.37,2.99,14.06,15.02
15.387647151947021,0.97,-3.27,4.84,5.92
15.398274898529053,-1.67,3.48,-2.69,4.7
15.407883167266846,-3.67,7.4,-15.66,17.7
15.417701244354248,-5.02,1.17,-14.68,15.55
15.432132244110107,-4.54,-4.72,-6.68,9.35
15.437532901763916,-0.39,-2.0,-11.11,11.29
15.447525978088379,2.47,-11.56,48.84,50.25
15.457564115524292,11.19,-4.65,8.87,15.01
15.467729091644287,4.79,24.63,-26.94,36.81
15.482283115386963,-8.58,-0.64,-27.6,28.9
15.487437009811401,-6.22,-10.94,-10.26,16.23
15.497100114822388,-8.15,9.32,-3.99,13.0
15.507641077041626,7.22,-5.14,11.02,14.14
15.517205238342285,9.9,-16.7,33.48,38.7
15.53174901008606,6.82,0.29,-0.93,6.88
15.536886215209961,-6.65,14.31,-16.79,23.04
15.546778202056885,-9.8,-1.6,-23.87,25.85
15.557590007781982,-8.64,1.41,-10.67,13.8
15.567018985748291,3.72,-0.58,-2.26,4.39
15.582345008850098,9.13,-9.36,27.65,30.58
15.586556911468506,2.89,5.16,16.16,17.2
15.5968599319458,-0.03,-2.85,-13.55,13.84
15.606940031051636,-5.45,4.89,-23.26,24.38
15.617006063461304,-9.03,3.19,-22.57,24.51
15.632091999053955,-7.54,-6.93,-1.18,10.3
15.636649131774902,3.11,-15.71,41.09,44.1
15.646687030792236,21.33,7.18,27.41,35.46
15.657151222229004,7.34,10.51,2.35,13.03
15.666297912597656,-15.84,-0.79,-34.53,37.99
15.681979179382324,-19.82,-4.45,-15.49,25.54
15.686008930206299,-10.29,8.51,10.6,17.04
15.6964111328125,10.59,-9.7,8.15,16.51
15.706162929534912,11.55,-5.4,18.68,22.61
15.716174125671387,-0.98,1.94,3.74,4.32
15.7329421043396,-7.2,-6.91,-1.55,10.09
15.73569393157959,-9.25,15.35,-13.35,22.34
15.746213912963867,-2.64,15.62,-1.56,15.91
15.75560212135315,0.43,-9.74,-5.53,11.2
15.76607894897461,4.14,-1.57,-11.88,12.67
15.781927108764648,0.21,-7.9,-11.84,14.23
15.78544807434082,0.61,-7.05,18.38,19.69
15.795794010162354,-1.84,1.79,14.43,14.65
15.805485010147095,-3.68,14.0,-9.31,17.21
15.815669059753418,-4.77,2.59,-17.8,18.6
15.8316490650177,4.14,-10.83,-12.63,17.14
15.835093975067139,4.69,-9.07,1.91,10.38
15.845458984375,-0.18,-10.46,50.29,51.36
15.855061054229736,-2.36,13.56,0.2,13.76
15.865186214447021,-5.19,5.86,-17.95,19.58
15.880650997161865,0.99,-31.97,7.7,32.89
15.884768009185791,9.74,-11.93,4.92,16.16
15.895628929138184,1.28,23.05,-2.59,23.23
15.904973983764648,-8.71,2.87,26.15,27.71
15.915246963500977,-2.51,-3.9,-8.93,10.06
15.9307279586792,4.7,4.49,-18.05,19.18
15.934611082077026,-0.13,-2.36,-23.84,23.95
15.944681167602539,-1.53,3.61,5.9,7.08
15.954531192779541,1.51,2.53,9.38,9.83
15.964785099029541,0.37,2.08,7.9,8.17
15.980788230895996,-3.76,5.98,-5.36,8.86
15.984443187713623,-2.15,-2.74,-13.18,13.63
15.994699954986572,1.7,-0.82,-3.53,4.0
16.004680156707764,1.3,-6.02,-11.88,13.38
16.014204025268555,-0.37,-9.98,15.83,18.71
16.02958106994629,2.07,7.64,33.28,34.2
16.034090995788574,-3.04,23.51,-18.21,29.89
16.044740200042725,-7.97,7.57,-23.91,26.31
16.054150104522705,-5.28,-22.23,-3.58,23.12
16.06415605545044,2.26,-14.8,-18.5,23.79
16.079631090164185,14.57,-11.73,28.62,34.19
16.083624124526978,11.71,-4.91,31.0,33.49
16.093905925750732,-6.89,5.42,-1.61,8.91
16.103806018829346,-14.12,5.03,-11.63,18.97
16.114006996154785,-2.37,-3.32,-21.71,22.08
16.12976312637329,9.92,-2.99,-20.72,23.16
16.1336932182312,14.83,-3.78,-8.17,17.34
16.143776893615723,-5.16,-0.06,27.54,28.01
16.15355610847473,-10.31,-2.02,14.01,17.51
16.163578987121582,1.76,-4.73,2.87,5.8
16.179006099700928,5.78,0.29,-4.4,7.26
16.18305492401123,0.89,3.85,3.45,5.24
16.193368911743164,-3.23,2.58,-6.76,7.92
16.20319104194641,0.9,1.42,6.12,6.34
16.213423013687134,2.58,-2.88,-26.1,26.38
16.229007244110107,-1.18,1.38,-10.23,10.38
16.232909202575684,-0.61,1.45,1.58,2.22
16.243271112442017,-0.98,5.79,1.04,5.96
16.252714157104492,0.81,-2.3,7.15,7.55
16.263367176055908,1.08,5.92,-3.74,7.08
16.279213905334473,0.36,-4.7,11.19,12.14
16.28285002708435,3.23,-10.5,3.74,11.6
16.29283618927002,2.99,9.36,-5.48,11.25
16.302601099014282,3.05,-4.33,11.24,12.42
16.312916040420532,5.8,-15.73,14.88,22.41
16.328546047210693,-1.22,0.59,-15.49,15.54
16.33234691619873,-4.14,-4.8,2.53,6.82
16.342459201812744,-2.43,3.08,-8.68,9.52
16.352137088775635,2.89,3.51,1.49,4.78
16.362611055374146,2.71,-3.31,-11.42,12.19
16.378194093704224,-2.82,3.48,-0.47,4.5
16.381988048553467,-0.92,-11.51,11.52,16.31
16.39280414581299,5.22,-3.71,13.1,14.58
16.40184497833252,3.14,1.72,2.06,4.13
16.41237211227417,-2.28,-3.74,4.33,6.15
16.428061962127686,-1.83,-8.72,1.89,9.1
16.431782245635986,1.42,9.9,-14.58,17.68
16.44256019592285,-2.0,21.86,-10.08,24.15
16.451644897460938,-3.86,6.22,-8.91,11.53
16.462160110473633,-2.72,-0.91,-9.35,9.78
16.478536128997803,5.38,-19.16,8.21,21.52
16.481788158416748,9.01,-0.78,3.28,9.62
16.49191403388977,-1.41,18.12,3.69,18.54
16.50190496444702,-5.76,7.63,14.54,17.4
16.511817932128906,0.42,-6.06,12.89,14.24
16.52850914001465,8.54,-11.05,-11.67,18.19
16.531273126602173,5.6,4.03,-17.64,18.94
16.541244983673096,-0.45,15.01,-9.47,17.75
16.55100917816162,-1.27,-4.7,0.92,4.95
16.561532974243164,-0.39,-9.04,5.54,10.6
16.577279090881348,2.16,-8.95,5.36,10.65
16.580853939056396,2.56,4.58,5.2,7.38
16.593383073806763,-0.42,17.84,-4.65,18.44
16.60072612762451,-3.5,-1.5,1.35,4.04
16.61157989501953,0.18,-9.03,17.26,19.48
16.627474069595337,4.56,-4.18,1.28,6.31
16.630917072296143,1.21,-3.59,-4.08,5.56
16.643999099731445,-0.42,-2.96,-6.37,7.03
16.650450229644775,-2.38,-1.27,-9.7,10.06
16.660944938659668,2.52,-3.15,0.46,4.06
16.67652416229248,2.2,-5.02,4.79,7.27
16.680275917053223,4.1,9.1,-6.19,11.74
16.693850994110107,0.38,14.44,-13.24,19.59
16.70045804977417,1.0,-2.96,-11.19,11.61
16.710989952087402,2.81,-2.23,-0.23,3.59
16.7274489402771,6.31,-8.72,29.92,31.79
16.730128049850464,2.43,-6.73,15.3,16.89
16.744412899017334,-0.13,-1.4,-8.67,8.78
16.749939918518066,1.83,-0.9,-8.08,8.33
16.76073694229126,0.5,-13.21,4.04,13.82
16.776235103607178,3.4,5.4,-12.35,13.9
16.779844045639038,-2.65,2.82,7.88,8.77
16.793484210968018,-1.84,2.37,-0.28,3.01
16.79961109161377,0.33,11.4,-4.71,12.33
16.810201168060303,3.68,-3.97,-3.63,6.51
16.82607889175415,0.82,4.86,13.5,14.37
16.829808235168457,-1.42,6.47,-0.48,6.64
16.839723110198975,3.65,3.86,-3.48,6.35
16.849623203277588,8.25,-1.95,-4.97,9.82
16.85984706878662,1.07,4.97,-13.51,14.43
16.875494956970215,-6.06,-3.89,6.17,9.48
16.87914800643921,-4.37,2.24,3.6,6.08
16.889720916748047,2.52,6.28,10.75,12.7
16.89939022064209,4.72,-7.13,-3.24,9.14
16.90957498550415,-3.32,15.04,-15.74,22.02
16.925567150115967,-4.51,-5.3,4.62,8.35
16.929065227508545,6.15,-5.49,10.91,13.67
16.938846111297607,7.21,3.46,5.21,9.54
16.949193954467773,-6.49,-2.35,2.87,7.47
16.95966410636902,-6.25,-2.81,1.43,7.0
16.97556209564209,1.35,1.1,-10.51,10.65
16.978909969329834,3.62,3.17,4.81,6.8
16.98867702484131,1.3,-11.82,7.2,13.9
16.998800039291382,-0.77,1.37,3.04,3.42
17.00904107093811,-3.02,9.19,1.13,9.73
17.024916172027588,-2.28,6.98,-5.49,9.16
17.0284161567688,1.98,-5.11,-11.96,13.15
17.038531064987183,6.34,-17.21,-4.49,18.88
17.048320055007935,4.82,-2.29,6.04,8.05
17.059042930603027,-2.75,5.85,0.86,6.52
17.075212001800537,-2.03,5.56,13.05,14.32
17.078161239624023,3.66,0.91,-4.31,5.72
17.088643074035645,2.0,6.74,6.26,9.41
17.098416090011597,-0.31,-3.35,2.17,4.0
17.108755111694336,1.35,5.17,2.84,6.05
17.12450408935547,0.75,2.28,-0.61,2.47
17.12785816192627,-1.28,1.11,-17.53,17.61
17.13776206970215,0.51,-2.53,-3.9,4.67
17.147733211517334,-0.38,-10.46,-5.27,11.71
17.1581711769104,2.68,0.22,6.01,6.58
17.174007892608643,0.24,10.36,22.05,24.36
17.177599906921387,-1.18,14.4,-24.35,28.31
17.187849044799805,-1.93,7.55,-17.9,19.52
17.197804927825928,4.15,-20.91,-15.46,26.33
17.2082200050354,6.96,-8.34,-3.92,11.54
17.22424006462097,4.75,-8.69,51.37,52.31
17.22731924057007,-2.49,0.25,29.43,29.53
17.237418174743652,-2.36,6.02,-11.17,12.9
17.247286081314087,-0.48,-2.6,-39.36,39.44
17.258198022842407,1.22,-10.72,-6.44,12.56
17.273905038833618,4.82,9.14,-4.85,11.41
17.276981115341187,3.43,10.3,26.5,28.63
17.28707218170166,-0.72,-3.99,-1.17,4.21
17.2970871925354,2.13,-0.93,-4.46,5.02
17.307501077651978,4.16,-8.68,-16.57,19.16
17.323827028274536,3.58,-0.31,-0.34,3.6
17.327038049697876,-3.19,5.4,14.46,15.76
17.336555004119873,-5.6,4.16,10.73,12.79
17.34692621231079,1.91,-3.11,-4.3,5.64
17.35692024230957,7.36,6.72,-11.05,14.88
17.37333917617798,3.08,0.77,-10.34,10.81
17.376447200775146,0.93,3.4,1.64,3.88
17.3869309425354,2.97,-2.75,4.81,6.28
17.396388053894043,2.6,6.9,-0.14,7.37
17.406630992889404,-0.55,4.89,0.08,4.92
17.422749996185303,1.72,-14.83,-7.38,16.65
17.426165103912354,3.33,-6.8,2.66,8.02
17.436410903930664,2.16,10.6,1.51,10.92
17.446218013763428,-1.42,-4.17,11.69,12.49
17.45633101463318,3.02,-3.25,-2.84,5.26
17.472763061523438,4.92,2.99,-4.49,7.3
17.47610902786255,5.31,-4.59,1.96,7.28
17.486196994781494,1.56,-4.73,4.43,6.66
17.496392011642456,-1.41,10.97,5.31,12.26
17.505863189697266,-1.31,7.71,0.38,7.82
17.521891117095947,3.52,-1.72,-5.14,6.46
17.525602102279663,5.74,-6.31,-8.64,12.14
17.53544306755066,1.89,-6.03,-10.44,12.2
17.54562997817993,-0.73,9.07,2.72,9.49
17.55565118789673,1.05,-7.27,9.18,11.75
17.571899890899658,3.84,-10.52,13.15,17.27
17.57534694671631,1.8,-0.52,-5.37,5.68
17.585503101348877,-1.76,-0.53,-3.06,3.56
17.595588207244873,-3.9,6.72,-18.54,20.1
17.605767011642456,-2.86,6.9,15.18,16.91
17.62230920791626,1.1,3.94,3.01,5.07
17.625091075897217,3.17,3.4,12.41,13.25
17.635283946990967,4.26,-9.39,-8.06,13.08
17.64510202407837,0.26,-0.97,-15.09,15.12
17.655077934265137,-8.39,7.58,-9.96,15.06
17.671162128448486,-4.59,-0.1,3.72,5.9
17.674726963043213,0.26,-7.99,4.67,9.25
17.685023069381714,12.7,-5.33,18.85,23.34
17.695486068725586,7.8,5.22,-7.16,11.8
17.704649925231934,-6.43,18.22,-4.27,19.78
17.72026300430298,-13.01,0.08,-9.0,15.81
17.724669933319092,-2.1,0.7,4.96,5.43
17.734629154205322,10.21,1.35,7.22,12.57
17.744411945343018,10.44,-12.08,7.44,17.61
17.754862070083618,2.67,-2.71,-5.15,6.4
17.770917892456055,-4.02,9.46,-16.75,19.65
17.77419900894165,-6.71,0.11,-1.8,6.94
17.78414511680603,-2.29,-13.6,22.23,26.16
17.79453706741333,11.96,2.93,16.02,20.2
17.804236888885498,1.81,24.45,-6.19,25.28
17.82029390335083,-6.7,6.23,-12.71,15.66
17.824552059173584,-4.97,-10.72,-19.84,23.09
17.834189891815186,5.38,-7.62,-5.76,10.96
17.84421396255493,5.25,-4.46,-4.07,8.0
17.85407018661499,2.15,-1.85,33.29,33.41
17.87046718597412,3.1,-6.44,13.41,15.19
17.874032974243164,0.2,4.85,-4.58,6.67
17.884247064590454,-5.01,0.25,-17.75,18.44
17.893606185913086,-5.26,6.84,-23.79,25.3
17.90364408493042,-0.84,-1.96,-8.06,8.33
17.920183181762695,5.99,-13.26,16.24,21.8
17.923570156097412,15.83,-6.5,29.01,33.68
17.93322205543518,9.71,5.66,-3.47,11.76
17.94336223602295,-3.19,6.71,3.37,8.15
17.953387022018433,-9.95,2.47,-16.26,19.22
17.96951389312744,-4.13,-3.81,-2.17,6.02
17.973541021347046,4.94,-6.94,9.34,12.64
17.983022212982178,5.6,14.52,-2.87,15.82
17.9933180809021,2.88,-9.51,2.56,10.26
18.003382205963135,2.51,-13.53,-4.83,14.58
18.019628047943115,-4.15,11.05,-15.16,19.21
18.022943019866943,-7.25,4.88,15.95,18.18
18.033134937286377,-3.25,9.42,2.43,10.25
18.04277801513672,6.06,2.83,0.55,6.71
18.052797079086304,9.05,-10.96,-10.53,17.68
18.068735122680664,5.53,0.73,-2.96,6.31
18.072674036026,-3.28,0.26,2.2,3.95
18.082458972930908,-3.19,-5.08,19.82,20.7
18.09279203414917,1.62,7.73,-4.77,9.22
18.10284996032715,3.41,3.05,3.6,5.82
18.11857318878174,1.71,3.29,-18.51,18.87
18.122742176055908,-1.3,6.86,-18.72,19.97
18.13210105895996,-0.99,0.39,-7.35,7.42
18.14232301712036,2.45,-7.46,8.02,11.22
18.153106212615967,5.36,-12.2,23.9,27.36
18.168850898742676,2.37,-1.39,-2.88,3.98
18.17207098007202,-3.01,13.51,-10.57,17.41
18.18196392059326,-2.9,-13.58,-1.29,13.94
18.192395210266113,3.18,-5.85,-11.61,13.38
18.20224905014038,5.21,7.39,6.73,11.27
18.218154907226562,0.82,-7.12,27.3,28.22
18.22187089920044,-1.78,6.82,5.25,8.78
18.23194122314453,-0.03,-3.09,-0.39,3.11
18.24178910255432,0.47,7.99,-9.47,12.39
18.251872062683105,3.81,-5.79,0.99,7.0
18.26789402961731,4.99,-0.75,-16.25,17.01
18.27152109146118,-2.6,11.33,-9.49,15.0
18.28159809112549,-4.51,-17.69,13.0,22.41
18.29209303855896,1.95,-3.94,14.8,15.43
18.30165719985962,2.56,11.91,-0.74,12.2
18.317705154418945,-3.13,5.18,7.41,9.56
18.321274042129517,-0.64,-10.79,5.15,11.97
18.33153200149536,4.23,-1.96,-15.83,16.5
18.34158420562744,3.75,13.84,-2.65,14.58
18.351409912109375,-1.64,2.57,-10.19,10.63
18.368096113204956,-5.06,3.49,-2.8,6.75
18.37084197998047,-1.72,5.53,-3.38,6.7
18.380977153778076,3.46,-4.92,12.74,14.08
18.391207218170166,3.38,1.5,5.18,6.36
18.401106119155884,-0.13,3.61,-2.33,4.29
18.41745615005493,-1.61,0.31,-6.64,6.83
18.420669078826904,1.83,-11.32,2.83,11.81
18.430888175964355,4.51,-3.01,-2.61,6.01
18.44058895111084,-0.47,8.24,3.13,8.82
18.45106601715088,-4.75,-4.82,2.31,7.15
18.467713117599487,0.4,6.08,-4.66,7.67
18.47064709663391,6.95,-3.92,1.06,8.04
18.48067617416382,4.49,-1.86,-5.09,7.03
18.49076008796692,-1.4,7.29,-6.9,10.13
18.500164031982422,-2.6,-1.07,-8.45,8.9
18.51658010482788,-1.75,-1.14,-0.16,2.09
18.52003502845764,-3.18,-3.22,13.79,14.51
18.53051209449768,-2.87,-2.45,12.7,13.24
18.53995108604431,1.27,10.45,-3.59,11.12
18.55028009414673,3.13,-5.9,-9.43,11.55
18.567151069641113,2.89,-7.4,-9.09,12.07
18.569727897644043,-0.53,7.44,-6.95,10.19
18.58016014099121,-0.13,-7.15,5.3,8.9
18.58986806869507,0.95,-5.47,13.83,14.9
18.600275993347168,1.18,7.09,6.26,9.53
18.617213010787964,0.0,-7.12,5.32,8.88
18.619801998138428,1.34,2.16,-11.41,11.68
18.629880905151367,0.94,4.49,-6.65,8.07
18.639345169067383,1.38,1.25,2.24,2.91
18.649648189544678,-1.26,2.68,-16.35,16.61
18.666404008865356,-2.03,-4.29,-1.33,4.92
18.669137001037598,-1.36,2.18,-2.53,3.6
18.679712057113647,3.33,-11.45,36.14,38.05
18.689317226409912,5.06,5.24,-8.78,11.4
18.699310064315796,-1.54,13.73,-2.15,13.98
18.716203212738037,-5.38,-11.42,0.03,12.62
18.718847036361694,1.81,-2.1,-5.43,6.09
18.72935199737549,4.86,4.23,-12.12,13.72
18.738719940185547,1.05,-6.47,5.49,8.55
18.74903392791748,-4.4,-0.25,10.12,11.03
18.766184091567993,-3.37,1.27,-1.68,3.97
18.768577098846436,-0.14,8.24,-8.93,12.15
18.77904510498047,-1.37,11.64,-3.52,12.23
18.788738012313843,-3.61,-3.17,0.03,4.8
18.798742055892944,0.3,-8.16,13.55,15.82
18.81563711166382,4.97,8.18,-1.46,9.68
18.818562984466553,1.17,1.28,-0.89,1.94
18.828722953796387,-4.67,3.82,13.48,14.76
18.838576078414917,-3.14,-5.06,-3.77,7.04
18.848480224609375,3.55,1.78,-6.43,7.55
18.86534595489502,5.28,-0.85,-8.85,10.34
18.86802101135254,0.25,-1.06,-8.99,9.05
18.878302097320557,-6.3,-2.43,5.48,8.69
18.888142108917236,-4.28,-4.87,4.12,7.68
18.898348093032837,3.04,1.35,6.83,7.59
18.915482997894287,2.34,7.68,-7.45,10.95
18.917834043502808,-5.21,2.84,-10.45,12.01
18.928237915039062,-3.87,-12.93,-2.12,13.66
18.93765115737915,5.34,-3.83,12.16,13.82
18.94827103614807,4.33,3.36,21.0,21.7
18.96529722213745,-5.71,11.95,7.05,15.0
18.967726230621338,-4.63,-12.23,-0.06,13.07
18.977708101272583,1.48,5.66,-20.44,21.26
18.987452030181885,0.04,12.29,-16.46,20.54
18.997812032699585,2.2,-8.11,-4.43,9.49
19.01457905769348,1.63,1.52,-9.81,10.05
19.017349243164062,0.63,-11.95,11.67,16.71
19.0274019241333,1.71,1.38,23.8,23.9
19.037113189697266,1.85,7.1,15.09,16.77
19.047738075256348,-5.94,2.44,-11.01,12.74
19.06558108329773,-4.89,7.37,-12.0,14.9
19.067273139953613,2.25,-4.53,-15.48,16.28
19.07772922515869,6.43,-10.23,-7.94,14.45
19.0870840549469,-1.17,8.11,10.11,13.01
19.097597122192383,-3.5,-12.0,20.76,24.23
19.114304065704346,3.22,-11.47,9.06,14.96
19.116995096206665,5.94,14.65,-4.14,16.34
19.126852989196777,2.06,5.2,-8.45,10.13
19.1365909576416,-0.77,-8.78,-4.32,9.81
19.146971225738525,1.25,0.71,-9.22,9.33
19.16424012184143,-0.77,5.99,-12.84,14.18
19.166415214538574,-1.39,-6.0,-7.79,9.93
19.176610946655273,-1.97,-1.33,-2.54,3.47
19.186519145965576,0.74,-9.2,-0.77,9.26
19.196671962738037,4.07,-1.95,19.7,20.21
19.213486194610596,2.33,14.9,9.87,18.02
19.21620011329651,-1.01,5.14,-12.31,13.37
19.22678804397583,1.02,-3.7,-2.35,4.5
19.23594307899475,2.97,-2.39,-5.68,6.84
19.246388912200928,4.69,-11.28,9.84,15.68
19.26364803314209,2.47,-4.85,20.2,20.92
19.265810012817383,-2.57,11.65,4.91,12.9
19.276573181152344,-1.05,-6.21,-5.19,8.16
19.285938024520874,2.93,-13.76,-2.02,14.21
19.296231031417847,-0.3,11.83,-21.31,24.37
19.31292200088501,-3.55,13.42,-9.04,16.56
19.315914154052734,-2.37,-14.2,6.99,16.0
19.328338146209717,5.8,-4.55,-12.97,14.91
19.3357150554657,4.74,3.22,5.12,7.68
19.345849990844727,-0.82,7.64,-3.25,8.34
19.362130165100098,-0.35,3.7,9.65,10.34
19.365194082260132,1.0,6.35,-8.18,10.4
19.375672101974487,-0.5,-7.61,4.49,8.84
19.38547706604004,-0.87,-5.42,7.9,9.61
19.395678997039795,-0.46,0.48,10.4,10.42
19.41295623779297,-0.36,-3.0,15.99,16.27
19.415033102035522,0.32,3.23,1.91,3.76
19.428040981292725,-0.04,-1.05,-12.58,12.62
19.43485403060913,0.1,2.91,-8.88,9.34
19.44557523727417,-0.09,7.77,-5.83,9.71
19.46253204345703,-0.78,-7.54,2.71,8.05
19.464980125427246,-0.18,0.38,11.04,11.04
19.4779109954834,-1.26,11.17,-1.07,11.29
19.484538078308105,-0.87,3.16,2.35,4.03
19.495234966278076,2.18,-17.82,1.61,18.02
19.511828899383545,0.01,9.35,-14.48,17.23
19.514514923095703,-5.51,12.54,-9.09,16.43
19.52447009086609,-2.08,-15.49,6.46,16.91
19.534353017807007,7.84,1.37,4.29,9.04
19.544755935668945,4.61,-0.49,5.46,7.16
19.561665058135986,-5.14,4.63,-2.14,7.24
19.564102172851562,-2.86,-0.49,-8.05,8.55
19.57454013824463,5.95,-10.54,-8.04,14.53
19.584389209747314,7.75,-10.21,0.2,12.81
19.59490704536438,-2.1,0.3,-1.39,2.53
19.61179494857788,-7.79,12.51,16.05,21.78
19.61396598815918,-2.38,7.85,8.78,12.01
19.62403917312622,3.49,6.53,-9.81,12.29
19.63386607170105,0.65,-2.46,-22.64,22.78
19.644164085388184,-1.37,-0.78,-13.53,13.62
19.66226100921631,-2.71,5.95,4.4,7.88
19.66386318206787,-3.58,12.84,14.15,19.43
19.673827171325684,0.69,-9.7,4.53,10.72
19.683747053146362,8.56,-7.08,-14.64,18.37
19.693979024887085,7.45,-1.28,-4.39,8.74
19.71072816848755,-1.91,-8.64,10.31,13.58
19.71337103843689,-6.47,1.61,12.09,13.8
19.723615169525146,-0.29,0.57,5.24,5.27
19.73338794708252,2.06,-5.59,-13.93,15.15
19.743946075439453,3.94,-10.09,18.48,21.42
19.761035919189453,-1.16,4.5,-10.56,11.53
19.762990951538086,-7.27,7.1,13.09,16.57
19.773529052734375,-1.7,5.5,-7.85,9.73
19.783027172088623,6.22,7.39,-5.32,11.02
19.793492078781128,1.79,-0.24,-15.1,15.2
19.810472011566162,-5.08,6.31,-2.12,8.37
19.813090085983276,-3.55,-1.11,15.96,16.38
19.82296895980835,3.94,-13.43,14.71,20.3
19.832953929901123,2.37,5.35,-5.1,7.76
19.843029022216797,-3.43,1.75,5.24,6.5
19.859745025634766,-0.57,-6.82,-9.51,11.71
19.862454891204834,3.72,-1.94,-11.23,11.98
19.872496128082275,-0.08,2.01,-14.11,14.25
19.882750034332275,-4.57,-0.86,0.75,4.71
19.892919063568115,-1.7,-6.41,13.43,14.97
19.91000008583069,5.37,1.58,6.76,8.77
19.912216186523438,1.62,1.46,3.01,3.71
19.922317028045654,-3.13,3.23,7.35,8.61
19.9320969581604,-0.78,3.59,3.03,4.76
19.942811012268066,4.29,-2.32,6.23,7.91
19.959749221801758,4.9,-2.09,4.1,6.72
19.96229600906372,0.48,2.63,-8.49,8.9
19.972126007080078,-4.51,-3.41,-26.27,26.87
19.982122898101807,0.99,-5.4,2.13,5.88
19.992559909820557,-1.97,1.25,-5.31,5.79
20.009483098983765,-4.74,13.81,10.35,17.89
20.01166296005249,-3.5,7.33,16.58,18.46
20.021793127059937,5.21,0.4,6.83,8.59
20.031641006469727,5.98,-0.11,-15.01,16.15
20.04182004928589,1.17,-6.79,-20.83,21.93
20.058897018432617,-2.47,1.83,5.07,5.92
20.061334133148193,-3.06,-3.05,-3.63,5.64
20.071497917175293,-2.87,-3.09,7.9,8.95
20.081598043441772,-2.04,-1.24,7.76,8.11
20.091552019119263,7.52,3.57,-3.79,9.14
20.10901403427124,3.94,10.42,-20.44,23.27
20.11108112335205,-1.92,3.57,-7.61,8.62
20.120933055877686,-5.26,-8.12,-3.0,10.12
20.13106918334961,3.49,-17.79,41.88,45.63
20.14127206802368,6.58,7.79,4.95,11.33
20.158932209014893,-1.8,9.78,-20.67,22.93
20.160749912261963,-4.18,-16.18,-31.42,35.58
20.171052932739258,-1.2,-18.32,34.19,38.8
20.181222915649414,-1.08,-1.9,1.99,2.95
20.191006183624268,6.25,10.73,28.98,31.52
20.20848798751831,2.77,-0.17,-22.18,22.35
20.210509061813354,3.03,5.1,-10.85,12.36
20.221018075942993,-5.22,2.73,-21.75,22.53
20.230491161346436,-5.2,-0.71,-3.2,6.14
20.240665912628174,-1.95,-1.17,-1.12,2.53
20.25755214691162,0.31,0.33,16.53,16.53
20.260239124298096,6.57,-18.25,21.1,28.66
20.27047109603882,7.18,2.87,3.39,8.44
20.280869960784912,-4.18,8.7,-10.35,14.15
20.290793895721436,-8.32,9.6,-21.29,24.79
20.308154106140137,-5.49,8.58,-0.81,10.21
20.310302019119263,4.64,-13.26,-4.86,14.86
20.319808959960938,8.06,10.88,10.21,16.95
20.33032512664795,-5.18,12.52,-1.11,13.59
20.340117931365967,-8.02,-1.23,-1.28,8.21
20.35762119293213,2.05,2.66,5.41,6.36
20.359629154205322,6.74,-4.13,-2.17,8.19
20.369863986968994,-0.47,-3.6,7.66,8.47
20.37974214553833,-1.84,-5.36,5.89,8.17
20.389843940734863,2.49,-1.48,4.27,5.15
20.408785104751587,2.66,1.26,-12.12,12.47
20.410365104675293,2.05,-9.61,10.08,14.07
20.419533014297485,-3.43,11.11,-19.82,22.97
20.429553031921387,-6.8,12.45,-4.17,14.78
20.439773082733154,-1.68,-18.67,0.94,18.76
20.457179069519043,7.61,-4.33,7.21,11.34
20.459028244018555,-1.54,5.45,-1.63,5.89
20.469449043273926,-4.79,-5.92,18.2,19.72
20.479377031326294,-0.34,-2.2,-2.65,3.46
20.489047050476074,5.49,2.8,-3.54,7.1
20.505527019500732,1.48,-0.49,-5.62,5.83
20.508821964263916,0.02,-1.6,-2.76,3.19
20.51865291595459,0.89,-1.85,-1.82,2.74
20.5293231010437,2.58,2.09,21.94,22.18
20.538880109786987,-1.74,8.17,-1.09,8.42
20.55552911758423,-1.48,2.91,6.89,7.62
20.558495044708252,3.74,-4.62,-18.27,19.21
20.56876516342163,4.59,-1.05,-15.71,16.4
20.578562021255493,-0.17,4.64,-10.84,11.79
20.588640213012695,-2.46,4.91,-10.93,12.23
20.60570502281189,-0.7,6.78,6.74,9.58
20.60836410522461,0.48,-1.8,7.06,7.3
20.618464946746826,-2.23,-14.98,9.3,17.77
20.628445148468018,0.89,-4.24,1.71,4.65
20.63867712020874,6.46,-1.57,9.07,11.24
20.65669298171997,1.17,10.66,-6.47,12.52
20.658443927764893,-7.64,5.68,11.85,15.2
20.668228149414062,-4.82,-7.93,6.12,11.11
20.678711891174316,2.58,1.02,-3.29,4.3
20.68812608718872,0.36,-0.23,4.84,4.85
20.70440101623535,-4.18,3.41,0.24,5.39
20.70799207687378,-1.86,5.72,-8.92,10.75
20.71769094467163,1.72,-6.59,-14.07,15.63
20.72769594192505,1.96,8.4,-15.82,18.01
20.737998962402344,-0.1,0.13,-6.08,6.08
20.755359172821045,-0.32,-9.85,-4.45,10.81
20.757441997528076,-4.87,9.65,-11.66,15.89
20.767842054367065,-0.79,-6.9,29.87,30.66
20.77760601043701,6.96,-4.39,27.98,29.16
20.788021087646484,8.26,3.95,-3.78,9.9
20.80495023727417,-0.41,1.12,-23.44,23.47
20.80751609802246,-3.89,-5.24,-7.45,9.9
20.817121982574463,-2.14,-15.06,7.37,16.9
20.827161073684692,4.53,2.92,18.94,19.69
20.83735418319702,1.66,7.34,8.8,11.57
20.854496002197266,-4.23,4.79,1.29,6.51
20.856966018676758,-1.16,-2.92,-11.34,11.76
20.866905212402344,4.38,7.69,-13.22,15.9
20.876750946044922,3.48,0.11,-8.36,9.05
20.887165069580078,-0.19,-0.66,1.65,1.78
20.904651165008545,-2.11,2.01,1.98,3.52
20.90677309036255,0.27,-1.64,1.84,2.47
20.91681408882141,1.36,9.52,-8.41,12.77
20.926505088806152,1.51,12.49,-11.47,17.02
20.93708109855652,0.86,-2.13,0.52,2.35
20.95422911643982,2.64,-12.09,9.0,15.3
20.95642900466919,2.21,-1.34,-0.93,2.74
20.966373920440674,-1.48,5.97,-3.2,6.93
20.976934909820557,-2.2,-14.29,11.19,18.28
20.986774921417236,2.4,-16.52,11.77,20.42
21.0038321018219,1.41,12.43,-11.19,16.78
21.006484031677246,-4.26,5.33,2.5,7.26
21.01602602005005,-4.03,0.54,-19.67,20.08
21.027106046676636,-0.59,9.32,-8.68,12.74
21.03621816635132,-0.54,-3.67,4.1,5.52
21.05292510986328,0.18,-9.24,21.06,22.99
21.055843114852905,2.92,2.13,2.8,4.57
21.06612205505371,-0.75,12.41,1.48,12.52
21.07648992538452,-1.54,-10.58,0.55,10.7
21.085984230041504,2.6,-9.45,-20.84,23.02
21.102970123291016,1.48,10.97,-18.17,21.27
21.105623245239258,-1.44,-12.42,12.97,18.01
21.116353034973145,-1.57,-17.45,20.44,26.92
21.125899076461792,4.04,0.85,13.74,14.34
21.135852098464966,0.86,4.38,0.83,4.54
21.152640104293823,-3.79,-1.3,-0.42,4.02
21.155467987060547,-3.95,-14.26,-3.13,15.12
21.165287017822266,2.97,-7.45,-4.65,9.27
21.176082134246826,1.29,25.4,-9.61,27.18
21.185346126556396,-7.18,26.84,2.99,27.94
21.202295064926147,-8.66,1.32,-13.07,15.73
21.204988956451416,1.4,-8.01,5.61,9.87
21.215060234069824,13.37,-5.02,-0.4,14.28
21.225258111953735,3.76,10.77,3.21,11.85
21.23519802093506,-9.01,10.16,2.3,13.77
21.252440929412842,-6.67,-4.8,15.93,17.92
21.254749059677124,7.01,-13.64,-12.01,19.47
21.265117168426514,6.82,6.52,-6.31,11.35
21.27499294281006,-5.65,3.21,-6.23,9.0
21.285299062728882,-9.47,-4.72,6.78,12.56
21.302907943725586,0.22,4.07,-0.36,4.09
21.304564952850342,6.27,-4.36,-3.32,8.32
21.314829111099243,1.0,-12.45,4.92,13.42
21.32441806793213,-4.8,3.31,-2.62,6.39
21.334343910217285,-4.22,3.0,0.32,5.18
21.351412057876587,-0.72,-2.61,3.29,4.26
21.354533195495605,0.86,-4.49,-6.85,8.23
21.364590167999268,-0.71,9.83,-7.99,12.68
21.37469506263733,-1.22,5.01,-5.64,7.64
21.384112119674683,3.05,-20.62,15.37,25.89
21.401913166046143,3.69,-4.05,13.27,14.35
21.40396499633789,-5.51,14.63,-4.37,16.23
21.414327144622803,-10.19,9.07,0.44,13.64
21.423943042755127,-3.65,-14.86,-5.44,16.23
21.43406915664673,11.37,-0.2,-15.32,19.07
21.451341152191162,3.28,14.87,-11.63,19.16
21.453650951385498,-8.0,2.13,7.97,11.49
21.464291095733643,-3.95,-3.76,8.38,9.99
21.47391104698181,7.64,-0.05,10.15,12.7
21.48416519165039,1.55,3.44,-5.47,6.64
21.50141191482544,-5.49,-5.21,10.03,12.56
21.50376009941101,-2.48,-9.08,-2.03,9.62
21.513526916503906,3.47,9.44,-18.8,21.32
21.523698091506958,-0.74,4.01,-14.16,14.73
21.533607006072998,-3.83,-5.34,10.41,12.31
21.5510470867157,-5.95,6.62,15.58,17.94
21.553160190582275,3.14,-2.19,5.95,7.07
21.563422203063965,3.47,5.51,-16.36,17.6
21.573322057724,-1.83,-0.01,4.26,4.63
21.583372116088867,-3.72,-10.2,-2.93,11.24
21.60117816925049,0.67,0.35,5.25,5.3
21.602947235107422,-0.27,3.02,-0.38,3.05
21.613409996032715,-2.8,-0.86,4.6,5.45
21.62324094772339,0.12,-5.57,5.2,7.62
21.633686065673828,-0.16,12.9,-8.14,15.25
21.65131711959839,-1.17,-7.81,11.13,13.64
21.653083086013794,1.24,-9.57,-6.93,11.88
21.66288709640503,0.86,8.79,-7.41,11.52
21.672630071640015,-2.33,-4.06,-8.89,10.04
21.682992935180664,-2.51,-4.5,2.35,5.66
21.700654983520508,-1.07,-1.44,-0.23,1.8
21.70274806022644,0.18,-8.22,10.91,13.66
21.712562084197998,1.5,5.66,1.3,5.99
21.722615242004395,1.91,4.52,-7.14,8.66
21.732704162597656,1.11,-1.58,7.54,7.78
21.75034523010254,2.02,-5.17,13.31,14.42
21.752089023590088,0.63,4.55,5.11,6.87
21.76268720626831,-1.62,-1.81,1.84,3.04
21.772396087646484,-1.89,2.62,-13.68,14.05
21.782448053359985,0.27,-1.46,-17.38,17.44
21.799901008605957,0.52,-1.52,-11.06,11.17
21.801979064941406,-0.94,1.57,-5.88,6.15
21.81204605102539,-2.14,3.34,-4.89,6.29
21.8217990398407,2.89,-9.52,47.65,48.67
21.832431077957153,-0.79,17.01,-17.18,24.18
21.84956407546997,-5.38,23.23,0.5,23.85
21.851862907409668,-5.76,-22.1,-17.18,28.57
21.862107038497925,6.25,-14.41,7.14,17.25
21.87166690826416,7.95,22.9,-7.97,25.51
21.882091999053955,-5.97,3.23,-27.24,28.07
21.899792194366455,-5.35,-21.76,7.94,23.77
21.901512145996094,-0.29,-6.11,29.83,30.45
21.911925077438354,1.17,0.34,-2.05,2.38
21.921242237091064,4.43,0.87,9.93,10.9
21.931588172912598,-6.36,12.53,5.6,15.12
21.948853015899658,-1.27,0.76,-1.94,2.44
21.951029062271118,6.15,-11.64,-0.59,13.17
21.961266040802002,5.96,2.53,3.61,7.41
21.971242904663086,-4.56,9.49,-14.34,17.79
21.981750011444092,-5.18,1.82,-21.18,21.88
21.998842239379883,-1.73,-5.13,-7.52,9.26
22.001060009002686,-7.37,4.83,1.53,8.94
22.010959148406982,0.25,-7.83,7.65,10.94
22.02097511291504,4.68,-4.67,23.03,23.96
22.031111240386963,2.52,9.07,-13.28,16.27
22.04832696914673,-4.82,11.38,-16.86,20.9
22.050482034683228,-5.81,-5.11,0.22,7.74
22.06159496307373,3.4,-13.45,11.55,18.05
22.07052516937256,5.71,4.31,-2.46,7.56
22.080750942230225,-5.2,3.4,0.92,6.28
22.098140239715576,-10.85,-0.1,-4.38,11.7
22.100248098373413,-0.46,1.43,-2.48,2.89
22.11113691329956,8.53,-9.5,6.16,14.17
22.12039089202881,2.74,3.48,8.25,9.36
22.130867958068848,-4.64,0.58,10.46,11.45
22.14811897277832,0.27,-3.24,-1.31,3.5
22.149919033050537,5.37,9.03,-6.54,12.37
22.162743091583252,4.28,-4.47,-8.8,10.75
22.16998291015625,-3.24,1.34,-5.53,6.54
22.18031907081604,-8.74,13.98,-9.36,18.95
22.197329998016357,-6.24,-6.63,1.39,9.21
22.199979066848755,2.7,-13.69,8.67,16.42
22.212934970855713,2.95,3.45,1.37,4.74
22.219868183135986,-1.41,-2.36,14.24,14.5
22.229887008666992,0.88,-7.98,5.89,9.95
22.247200965881348,4.47,9.78,-12.34,16.36
22.24940013885498,1.77,-4.32,-10.29,11.29
22.263586044311523,-4.14,-2.43,-7.56,8.95
22.26926302909851,-5.75,2.52,-3.34,7.11
22.279900074005127,-3.09,-10.0,24.27,26.43
22.297460079193115,2.67,5.06,15.48,16.5
22.299098014831543,3.66,3.11,0.03,4.8
22.31390905380249,-1.34,1.36,1.29,2.3
22.319013118743896,-1.83,7.62,-1.09,7.91
22.32983922958374,5.09,-7.22,-10.62,13.81
22.34692096710205,0.8,1.1,-12.89,12.96
22.349061965942383,-8.23,16.78,-9.84,21.12
22.358824014663696,-3.06,1.37,-3.23,4.65
22.369280099868774,-6.59,-13.24,17.75,23.1
22.37912607192993,1.85,-11.9,8.15,14.54
22.396680116653442,-3.49,5.41,4.67,7.95
22.398502111434937,0.24,6.06,15.33,16.48
22.408445119857788,2.27,-3.65,-15.87,16.44
22.418378114700317,10.05,1.01,7.87,12.8
22.428633213043213,2.85,5.68,-13.02,14.48
22.446229934692383,-6.03,11.29,-17.98,22.07
22.44801902770996,0.91,-5.8,-0.01,5.87
22.45884418487549,-5.58,-0.66,-25.11,25.73
22.468288898468018,-7.04,-3.82,-6.27,10.17
22.479001998901367,-2.81,-11.94,41.14,42.92
22.496145009994507,6.93,0.66,29.19,30.0
22.498344898223877,6.39,11.25,-12.28,17.83
22.507678031921387,-7.12,-0.28,-24.81,25.81
22.517919063568115,-7.25,-17.63,7.46,20.47
22.52811622619629,3.05,4.17,-0.11,5.16
22.54536509513855,5.17,5.25,-2.71,7.85
22.547454118728638,-8.67,-10.29,8.37,15.84
22.557744026184082,-5.21,0.12,3.96,6.54
22.56733012199402,7.71,5.06,-2.07,9.45
22.577826976776123,4.68,0.76,1.09,4.86
22.595402240753174,-8.94,20.71,-6.96,23.6
22.59728503227234,-8.79,-0.73,-4.33,9.82
22.609085083007812,2.44,-8.86,1.24,9.27
22.617452144622803,5.41,0.76,2.99,6.22
22.627445220947266,-1.21,-3.22,10.08,10.65
22.644646167755127,-5.47,-3.17,4.61,7.82
22.646921157836914,1.27,0.45,3.58,3.82
22.657129049301147,3.29,9.22,0.05,9.78
22.667065143585205,-4.13,-3.01,-12.0,13.04
22.677438020706177,-6.65,3.58,4.58,8.83
22.694684982299805,3.41,1.88,-7.23,8.21
22.697172164916992,6.22,-0.89,-7.89,10.08
22.706525087356567,0.27,-4.73,-8.23,9.49
22.71713399887085,-4.1,-2.82,4.61,6.78
22.727180004119873,-4.95,5.73,-6.68,10.09
22.744426012039185,-0.97,-8.23,9.36,12.5
22.746201038360596,1.17,-0.88,15.64,15.7
22.756537914276123,-1.07,10.76,-7.82,13.34
22.766583919525146,-3.21,-8.51,16.52,18.85
22.777160167694092,0.96,-5.82,-3.35,6.78
22.79468297958374,2.49,-3.56,6.11,7.49
22.79628610610962,-2.29,5.47,-10.07,11.68
22.806729078292847,-2.32,3.43,-18.21,18.67
22.815998077392578,-0.71,0.92,-4.23,4.38
22.826918125152588,-0.31,-5.06,-14.1,14.98
22.844789028167725,-2.63,1.97,-10.98,11.46
22.84638500213623,-3.89,3.31,17.45,18.18
22.856003046035767,3.66,-0.4,21.19,21.5
22.866027116775513,3.43,7.4,-8.28,11.62
22.875967025756836,1.69,-12.15,5.96,13.63
22.893460035324097,-1.24,-14.52,-6.15,15.81
22.89558219909668,-1.08,5.66,-10.13,11.65
22.90536904335022,0.82,-3.72,31.53,31.75
22.915471076965332,0.54,-4.69,7.14,8.55
22.92573308944702,-2.56,4.52,1.93,5.54
22.94321298599243,0.24,-1.86,-8.16,8.37
22.94511604309082,0.08,0.08,-5.5,5.5
22.95597505569458,2.72,1.47,3.84,4.93
22.965205192565918,0.53,11.33,-5.02,12.4
22.975451946258545,-2.42,-3.3,-8.57,9.49
22.99303412437439,-4.16,6.9,-6.43,10.3
22.9950270652771,-1.51,-4.21,-5.9,7.4
23.005123138427734,1.32,-1.85,2.34,3.26
23.015035152435303,0.93,6.74,-2.78,7.34
23.025096893310547,2.6,-10.98,27.6,29.81
23.042525053024292,1.23,-0.68,-1.43,2.0
23.044649124145508,-0.2,3.69,2.62,4.52
23.05453610420227,0.8,-5.02,-3.2,6.0
23.065272092819214,3.77,3.37,1.15,5.18
23.074794054031372,0.62,0.9,-12.74,12.78
23.09226894378662,-5.27,-1.8,-1.29,5.71
23.094407081604004,-5.57,0.19,-8.45,10.12
23.104530096054077,0.26,-4.3,0.57,4.34
23.11448907852173,1.87,0.9,-9.11,9.34
23.124521017074585,-1.03,-4.07,-3.14,5.24
23.14416003227234,1.53,-5.74,9.45,11.16
23.145570039749146,5.0,1.28,14.3,15.2
23.15399694442749,1.04,18.19,1.11,18.25
23.16446590423584,-2.66,4.31,5.53,7.49
23.174214124679565,-1.61,-5.34,-14.11,15.17
23.19188690185547,-0.87,1.75,-11.15,11.31
23.19412899017334,-0.35,-3.67,-5.09,6.28
23.204092979431152,1.89,-6.26,-7.16,9.69
23.21426010131836,-1.06,3.35,10.35,10.93
23.22390604019165,-0.47,-7.41,18.8,20.21
23.240710020065308,-0.29,-9.92,4.84,11.04
23.243571043014526,3.39,5.09,-7.91,9.99
23.253785133361816,2.26,15.43,-14.97,21.61
23.263864994049072,4.36,-3.07,0.15,5.33
23.273648023605347,3.03,-7.92,1.1,8.55
23.290656089782715,-1.62,1.67,-3.5,4.2
23.29330015182495,-3.35,1.87,3.21,5.0
23.303415060043335,1.61,-1.45,5.87,6.25
23.313306093215942,6.9,-5.9,-3.74,9.81
23.323655128479004,0.37,8.73,-12.09,14.91
23.340854167938232,-2.93,-5.06,1.15,5.95
23.343367099761963,3.56,-13.27,5.45,14.78
23.353291034698486,5.6,3.08,4.68,7.92
23.363675117492676,-3.43,1.72,8.0,8.87
23.37311601638794,-4.8,2.72,13.34,14.43
23.390773057937622,2.56,-7.65,-0.02,8.06
23.392731189727783,5.14,5.79,-6.69,10.23
23.403005123138428,-0.41,3.1,-4.09,5.14
23.41281008720398,0.47,-6.63,3.86,7.68
23.42270302772522,1.82,-3.19,-1.19,3.86
23.43934202194214,-0.65,-0.03,-2.31,2.39
23.442654132843018,-4.64,8.52,-12.25,15.62
23.453064918518066,-3.7,4.04,-18.67,19.45
23.462433099746704,-2.72,-11.25,8.25,14.21
23.472979068756104,1.64,-1.97,-13.77,14.0
23.490320205688477,5.84,-2.97,34.71,35.32
23.49227523803711,2.15,10.76,-4.31,11.78
23.502259016036987,-1.62,3.87,-1.41,4.42
23.512301921844482,-2.86,-6.58,-4.26,8.34
23.522205114364624,2.54,-2.51,-3.46,4.97
23.539398193359375,2.55,2.63,0.29,3.67
23.54207706451416,-0.48,-3.28,11.33,11.8
23.55225896835327,-1.08,3.98,6.13,7.38
23.562108993530273,1.03,6.74,-9.09,11.36
23.572011947631836,-0.26,6.84,3.33,7.61
23.58928608894348,0.55,-0.36,-6.55,6.58
23.592048168182373,1.85,4.36,-17.58,18.2
23.60161018371582,-0.35,0.78,-5.46,5.52
23.611748218536377,-4.38,-6.02,11.87,14.01
23.621861934661865,0.23,-5.93,17.44,18.42
23.638729095458984,3.02,0.06,7.3,7.9
23.641385078430176,-3.92,12.41,-0.85,13.04
23.6513352394104,-5.65,-1.32,-9.57,11.19
23.661527156829834,-0.23,-7.96,-16.68,18.48
23.671471118927002,0.44,3.25,-3.89,5.08
23.689043045043945,-4.82,-5.93,0.84,7.68
23.691476106643677,-4.41,-2.26,-0.02,4.95
23.7014000415802,0.38,2.47,-1.03,2.7
23.71120309829712,-0.39,0.93,-0.46,1.1
23.721231937408447,-2.78,-4.32,3.17,6.03
23.738749027252197,-1.86,9.22,7.08,11.77
23.74093508720398,1.54,-2.25,15.25,15.49
23.750773906707764,2.7,-3.68,-4.85,6.65
23.761640071868896,-2.39,-0.33,8.62,8.95
23.77098798751831,-6.47,2.35,-0.73,6.92
23.789464950561523,-0.02,3.12,5.67,6.47
23.790913105010986,6.25,-4.35,4.41,8.79
23.800808906555176,-1.35,12.07,-7.52,14.28
23.81169319152832,-10.77,4.45,-4.98,12.67
23.820969104766846,-5.81,10.57,-17.11,20.93
23.838436126708984,-0.1,-0.59,-15.96,15.97
23.84033489227295,0.74,-3.18,-18.47,18.75
23.850563049316406,-3.77,-5.91,13.05,14.81
23.86043691635132,-2.8,-17.54,17.07,24.63
23.870063066482544,5.3,0.7,16.97,17.79
23.887648105621338,-0.11,3.01,-14.39,14.7
23.890000104904175,-7.29,12.2,5.65,15.29
23.900321006774902,-1.84,-14.03,10.78,17.78
23.910151958465576,6.23,3.58,-9.48,11.89
23.919710159301758,-0.75,9.94,-0.95,10.01
23.937182903289795,-5.13,-2.94,3.17,6.7
23.939738035202026,0.77,1.11,-2.65,2.97
23.950429916381836,3.78,-5.57,-19.29,20.43
23.959824085235596,-3.95,5.16,-10.44,12.29
23.97023296356201,-6.33,0.67,10.31,12.11
23.987662076950073,-4.06,-8.22,7.93,12.12
23.989570140838623,0.25,0.24,16.09,16.09
23.99967908859253,-2.04,-1.1,-0.43,2.35
24.009313106536865,-2.48,4.96,-1.17,5.66
24.019328117370605,3.56,-4.63,-0.18,5.84
24.036701202392578,6.76,-3.53,-12.39,14.54
24.039165019989014,-1.83,5.38,-16.52,17.47
24.049564123153687,-2.16,-9.89,20.68,23.02
24.05950403213501,-5.24,4.65,4.54,8.34
24.068977117538452,1.56,7.97,5.5,9.8
24.086546897888184,1.87,-10.89,-13.9,17.75
24.088900089263916,0.96,-3.46,-5.35,6.44
24.09891700744629,-2.38,1.26,-8.9,9.29
24.10873508453369,0.45,-5.37,1.8,5.68
24.11904501914978,2.18,-7.91,1.41,8.32
24.13700819015503,0.94,1.42,18.68,18.75
24.138524055480957,-2.29,8.3,1.85,8.8
24.149010181427002,-2.02,9.5,2.89,10.13
24.158618927001953,1.96,5.16,-17.93,18.76
24.169081211090088,3.92,2.38,-0.54,4.61
24.187143087387085,0.47,-6.22,-3.04,6.93
24.18867301940918,-3.03,-0.81,8.58,9.13
24.198368072509766,-0.27,-10.44,9.3,13.98
24.208539962768555,3.53,2.1,2.57,4.84
24.218360900878906,3.62,-5.8,2.44,7.25
24.23624610900879,0.99,-2.57,-5.88,6.49
24.238033056259155,-1.75,10.97,2.54,11.39
24.248202085494995,-0.01,3.82,-5.32,6.54
24.258159160614014,2.49,-8.25,-3.79,9.41
24.268192052841187,-0.93,-12.42,-0.32,12.45
24.286293983459473,-4.61,12.88,-1.56,13.76
24.28804111480713,0.2,-0.18,2.78,2.79
24.298248052597046,2.94,-13.42,12.48,18.56
24.30763602256775,5.92,-3.42,10.11,12.2
24.318258047103882,-3.97,9.14,-13.42,16.71
24.335811138153076,-5.18,16.5,-7.69,18.92
24.337773084640503,-1.53,-9.92,-6.24,11.81
24.34766721725464,5.04,-1.46,-4.9,7.17
24.35745906829834,-0.12,-0.78,13.53,13.55
24.367679119110107,-1.16,4.18,-0.04,4.33
24.385432243347168,2.86,1.95,-3.96,5.25
24.387211084365845,3.71,5.09,-16.76,17.9
24.397309064865112,-2.04,-6.75,-4.08,8.14
24.407358169555664,-4.93,-4.73,-0.09,6.83
24.417335033416748,2.76,-3.63,7.41,8.7
24.43513512611389,2.81,5.67,0.79,6.37
24.436920166015625,-4.8,12.23,0.97,13.17
24.44761610031128,-6.56,0.88,1.23,6.73
24.456809997558594,0.15,-9.7,-4.83,10.83
24.467299938201904,5.58,-3.82,3.16,7.46
24.485278129577637,4.97,-5.23,10.95,13.11
24.486979961395264,-1.14,14.92,2.33,15.14
24.49720811843872,-3.58,0.03,16.23,16.62
24.50652503967285,-4.77,-11.17,-10.13,15.81
24.516991138458252,-4.7,9.98,-11.37,15.84
24.534724235534668,-4.66,-3.21,-16.14,17.1
24.53662610054016,-2.24,11.29,-8.67,14.41
24.54661798477173,-0.16,-7.78,1.38,7.9
24.55682110786438,-0.82,-10.64,12.71,16.59
24.566644191741943,-3.77,18.7,5.08,19.74
24.585037231445312,-1.85,-1.39,-0.33,2.33
24.586727142333984,1.49,-10.11,-4.76,11.27
24.596238136291504,3.97,1.71,-6.25,7.59
24.605947017669678,0.24,2.0,-1.42,2.46
24.61639904975891,-5.02,8.92,9.05,13.66
24.634007930755615,-3.45,-10.18,16.57,19.75
24.63573122024536,-0.35,6.64,-7.75,10.21
24.646255016326904,-2.99,5.66,-9.36,11.33
24.655883073806763,-3.73,-10.11,5.61,12.14
24.666522979736328,-1.37,-2.51,-0.08,2.86
24.684770107269287,-1.81,0.36,-2.55,3.14
24.68650197982788,-3.82,0.36,1.73,4.2
24.695751190185547,-1.31,-4.06,5.43,6.9
24.70534610748291,-0.07,-0.22,5.24,5.24
24.715959072113037,-3.0,5.66,5.77,8.62
24.73424005508423,-0.92,2.76,-2.68,3.95
24.735658168792725,1.72,9.76,-5.14,11.16
24.74565315246582,-2.17,-2.77,-4.53,5.73
24.755300998687744,-5.32,-4.17,-2.74,7.29
24.765589237213135,-2.34,8.19,-8.02,11.69
24.783388137817383,-2.19,-7.18,0.46,7.52
24.78511905670166,-3.31,-5.03,15.26,16.4
24.79566717147827,-2.41,-6.07,12.9,14.45
24.80484104156494,-0.25,2.08,-6.07,6.42
24.815266132354736,2.82,-0.36,17.84,18.06
24.832380056381226,3.8,8.58,-12.94,15.98
24.834659099578857,2.42,-1.0,-0.5,2.66
24.84782123565674,0.19,-9.31,0.07,9.31
24.854493141174316,-0.91,13.97,-8.54,16.39
24.865015983581543,-2.25,0.28,-10.3,10.54
24.881943225860596,-4.02,-7.7,5.01,10.02
24.884786128997803,-8.27,5.57,-8.78,13.28
24.897491931915283,-5.56,3.04,8.81,10.85
24.904603004455566,3.64,-1.68,-1.33,4.22
24.914732933044434,3.1,-1.26,-8.06,8.72
24.931879997253418,-7.04,0.07,-14.03,15.69
24.934081077575684,-6.6,-13.24,5.35,15.73
24.947402954101562,0.01,-5.16,1.48,5.36
24.95392107963562,2.88,4.68,15.81,16.73
24.96444010734558,-4.85,-5.77,17.96,19.47
24.98173713684082,-6.78,8.75,7.14,13.17
24.983846187591553,1.34,2.39,-21.12,21.29
24.998184204101562,6.22,-7.26,-1.83,9.73
25.003713130950928,3.88,-6.13,-2.53,7.68
25.014172077178955,-6.14,-1.13,-6.81,9.23
25.031527996063232,-11.18,9.49,2.32,14.84
25.03385901451111,-3.22,2.96,9.95,10.86
25.048101902008057,-1.49,-4.36,8.08,9.3
25.053751945495605,4.76,7.69,-7.22,11.57
25.063743114471436,-3.72,-1.27,-15.5,15.99
25.080830097198486,0.55,2.24,-10.43,10.68
25.08328914642334,0.61,9.89,0.04,9.9
25.09869909286499,-2.13,-4.45,7.13,8.67
25.103200912475586,-9.23,-7.08,34.17,36.09
25.11365795135498,-7.61,1.04,-9.98,12.59
25.130867958068848,1.99,-2.46,4.12,5.19
25.132972240447998,4.13,-5.01,-12.9,14.44
25.14334201812744,2.38,1.3,8.45,8.87
25.153279066085815,-5.33,1.73,6.46,8.55
25.163681030273438,-1.52,0.6,2.88,3.31
25.18105912208557,-0.61,-2.43,5.19,5.76
25.183053970336914,-1.94,13.55,-19.65,23.94
25.192963123321533,-7.73,-6.15,0.17,9.87
25.203001976013184,-8.84,4.14,-12.87,16.15
25.213130950927734,-5.51,2.45,14.09,15.32
25.230659008026123,4.16,-15.68,0.36,16.22
25.23248815536499,7.0,0.29,6.43,9.5
25.242981910705566,-4.28,3.34,11.74,12.93
25.25256609916687,-7.57,-0.61,17.27,18.86
25.262797117233276,2.92,-2.62,-1.39,4.16
25.28008222579956,3.85,0.76,-11.97,12.59
25.28225302696228,-4.08,-3.13,-9.07,10.42
25.292665004730225,-7.81,-1.07,-2.0,8.13
25.302265167236328,-2.28,-3.85,-2.59,5.17
25.3127179145813,-0.02,-3.32,-7.68,8.36
25.329762935638428,-1.27,-2.38,-1.47,3.07
25.331897020339966,-3.34,-6.28,0.2,7.11
25.342092990875244,-2.33,14.19,-11.6,18.47
25.35242795944214,3.02,2.38,40.32,40.5
25.36233401298523,3.18,9.55,-2.48,10.36
25.37980604171753,-4.16,10.59,9.38,14.74
25.381684064865112,-8.91,-18.53,-12.12,23.86
25.39175510406494,-2.41,-10.3,-10.56,14.94
25.401824951171875,5.85,-1.17,7.0,9.19
25.41195297241211,1.14,7.86,-3.56,8.7
25.429517030715942,-7.64,2.59,-19.41,21.01
25.431339025497437,-4.84,2.18,24.65,25.21
25.441909074783325,-6.18,-5.85,-12.54,15.15
25.45151996612549,5.18,-0.38,16.98,17.75
25.462077140808105,5.49,11.42,-8.89,15.47
25.4791579246521,7.51,-5.86,17.55,19.96
25.48111605644226,0.89,-0.47,-7.26,7.32
25.491051197052002,-6.28,-3.92,-25.58,26.62
25.500979900360107,-8.24,5.05,2.26,9.92
25.51191520690918,-1.57,1.61,8.53,8.82
25.5291690826416,-5.0,-11.44,-3.7,13.02
25.53081703186035,4.69,-1.19,18.61,19.22
25.540637969970703,-0.77,12.91,-9.87,16.26
25.551387071609497,-2.72,2.32,1.52,3.88
25.561769008636475,-1.77,-10.77,-8.6,13.89
25.57928204536438,2.47,1.76,6.91,7.54
25.58086395263672,-0.48,-2.22,1.52,2.73
25.590464115142822,-3.44,2.54,3.14,5.3
25.6004581451416,-4.49,-9.02,0.55,10.09
25.610841035842896,-1.1,9.66,-4.93,10.9
25.628634929656982,1.33,4.15,-10.39,11.26
25.630205154418945,0.29,-1.33,-2.95,3.24
25.64038610458374,-1.22,-6.48,2.34,6.99
25.650454998016357,-2.99,0.35,-0.88,3.13
25.66043996810913,-3.71,9.49,2.51,10.49
25.67762804031372,-0.78,-7.87,0.8,7.94
25.680342197418213,-1.28,0.91,-12.2,12.3
25.68986415863037,-5.51,1.28,-3.87,6.85
25.700242042541504,-4.51,-1.98,10.29,11.4
25.710069179534912,1.27,0.46,11.79,11.86
25.72725820541382,-1.25,-1.48,2.91,3.49
25.729660034179688,-5.32,7.7,0.46,9.37
25.739607095718384,-1.79,-4.95,-1.2,5.39
25.75000309944153,1.61,-0.5,-16.7,16.78
25.759838104248047,-3.67,6.38,-17.96,19.4
25.777194023132324,-7.13,7.08,2.17,10.27
25.77946901321411,-5.57,-13.28,35.5,38.3
25.789226055145264,3.13,6.86,3.73,8.41
25.799407958984375,-0.67,7.92,3.12,8.53
25.80981206893921,0.16,-17.5,12.44,21.47
25.827425003051758,-0.59,-4.64,-25.25,25.67
25.829299926757812,5.67,-0.68,14.13,15.24
25.83943796157837,-2.68,12.67,-6.78,14.61
25.84941601753235,-14.87,8.23,-4.95,17.7
25.85928511619568,-7.73,-7.25,-0.06,10.59
25.87716817855835,-0.13,5.55,-14.37,15.4
25.878730058670044,5.46,-2.39,13.65,14.89
25.888676166534424,2.23,3.97,-2.49,5.18
25.898865222930908,-5.87,-0.07,7.7,9.68
25.908961057662964,-7.33,0.6,2.3,7.7
25.92611789703369,-2.04,-13.5,12.18,18.29
25.92862105369568,2.25,-1.54,9.62,9.99
25.93908405303955,-0.87,6.36,3.19,7.16
25.948617935180664,-2.01,-7.68,2.6,8.35
25.959009170532227,0.47,-0.6,-7.42,7.45
25.976820945739746,-0.85,-2.46,-7.73,8.15
25.978379011154175,-5.35,1.35,3.57,6.57
25.988529205322266,-4.22,6.96,2.16,8.42
25.998369216918945,3.19,5.69,12.46,14.06
26.008286952972412,2.51,1.99,1.36,3.47
26.02508807182312,-2.7,-2.72,-4.77,6.11
26.028326988220215,-2.48,-5.87,-3.29,7.17
26.037923097610474,2.05,5.44,3.09,6.58
26.048612117767334,0.91,14.2,3.16,14.57
26.057769060134888,-4.36,3.44,-0.38,5.56
26.0749568939209,-8.26,-12.6,-1.38,15.12
26.077803134918213,-2.31,-5.11,-7.94,9.72
26.087653160095215,5.71,13.29,-11.62,18.55
26.09779119491577,3.24,2.64,0.53,4.21
26.107731103897095,-3.8,-6.48,36.23,37.0
26.124934196472168,-13.77,7.96,-21.66,26.87
26.12739610671997,-5.52,-5.98,-11.79,14.32
26.137688159942627,3.95,-17.1,-3.94,17.98
26.1476891040802,7.39,3.08,-7.08,10.68
26.157855987548828,2.14,-5.14,50.26,50.56
26.17440414428711,-9.33,4.09,-6.65,12.16
26.177597045898438,-4.27,7.38,-7.5,11.35
26.18744206428528,1.18,-5.46,-20.42,21.17
26.197550058364868,2.3,2.54,-26.55,26.77
26.207159996032715,-0.82,7.89,7.26,10.75
26.223337173461914,-13.61,-8.81,11.52,19.88
26.22706890106201,-10.7,-2.56,7.25,13.17
26.23686909675598,10.48,-6.62,-1.69,12.51
26.247232913970947,7.01,0.12,-17.12,18.49
26.257186889648438,-6.42,16.5,-18.33,25.48
26.274010181427002,-11.01,4.96,-5.53,13.28
26.276974201202393,-9.25,-18.24,28.5,35.07
26.286567211151123,5.24,3.56,37.15,37.68
26.29653000831604,4.94,10.0,-12.2,16.53
26.30713701248169,-13.14,3.1,-24.4,27.88
26.324366092681885,-11.05,-13.43,19.65,26.24
26.326714992523193,3.07,-1.78,0.14,3.55
26.336777210235596,12.72,2.79,14.84,19.74
26.346513032913208,-5.17,6.13,-2.09,8.28
26.35649013519287,-11.69,4.1,-4.4,13.14
26.373332023620605,-4.16,-8.78,-1.59,9.84
26.376008987426758,7.13,0.81,5.21,8.86
26.38601589202881,2.07,0.1,0.85,2.23
26.395901203155518,-7.04,-3.29,8.44,11.47
26.40626311302185,-2.4,0.0,5.72,6.2
26.423185110092163,1.0,-0.94,-20.26,20.3
26.425911903381348,-2.55,0.98,-21.42,21.59
26.43605899810791,2.15,2.97,13.03,13.53
26.44633412361145,-9.84,-4.21,-2.86,11.07
26.45633316040039,-2.81,0.06,11.73,12.06
26.473639011383057,2.23,6.15,-11.72,13.42
26.475938081741333,4.5,-5.37,-1.6,7.18
26.485547065734863,-4.03,-5.65,1.09,7.02
26.49563217163086,-6.07,-0.58,18.92,19.87
26.505728244781494,-0.18,-3.08,19.24,19.48
26.52285623550415,3.78,11.11,5.44,12.93
26.525362014770508,-2.9,5.91,-7.56,10.02
26.535265922546387,-10.02,-4.3,-5.85,12.37
26.546175956726074,-9.43,0.97,-9.97,13.75
26.55539321899414,-1.1,8.77,-6.08,10.72
26.57206916809082,-0.55,5.68,-17.3,18.21
26.575123071670532,-0.58,-13.09,33.2,35.69
26.58553910255432,-5.8,1.55,8.37,10.3
26.5956130027771,-9.21,15.05,-25.79,31.24
26.605419158935547,3.55,-6.21,-11.44,13.49
26.622549057006836,2.3,-8.29,-23.76,25.26
26.62509298324585,5.03,-3.78,28.5,29.18
26.634799003601074,-7.44,-11.55,38.91,41.26
26.645209074020386,-11.39,2.16,17.13,20.68
26.65478515625,-4.51,9.15,-19.92,22.38
26.671285152435303,-0.9,0.28,-24.95,24.96
26.674499988555908,10.26,-10.39,0.82,14.62
26.6844220161438,0.06,7.32,-14.04,15.83
26.694967031478882,-13.24,15.65,-21.54,29.73
26.70458698272705,-7.37,5.87,27.12,28.71
26.72186303138733,-4.11,-11.62,25.46,28.28
26.7241849899292,5.2,2.68,-3.81,6.98
26.73448610305786,-3.93,-0.03,-18.47,18.88
26.744274139404297,1.31,-0.74,-26.97,27.01
26.75452208518982,5.79,-4.75,12.15,14.27
26.77195119857788,0.6,-9.48,14.25,17.12
26.773888111114502,-4.31,4.9,11.43,13.16
26.784284114837646,-7.31,2.17,-10.73,13.16
26.793757915496826,-5.36,3.47,-13.1,14.57
26.80397605895996,-4.19,-3.7,2.71,6.21
26.82110905647278,5.42,-2.18,3.93,7.04
26.823538064956665,-0.52,-3.35,9.07,9.68
26.833741188049316,-10.31,1.02,9.61,14.13
26.84373712539673,-3.66,8.04,-8.75,12.43
26.853698015213013,9.97,-3.02,-11.03,15.17
26.871284008026123,11.14,-8.33,11.76,18.21
26.873372077941895,-8.87,12.94,-4.55,16.33
26.88376522064209,-19.36,5.38,2.66,20.26
26.893446922302246,-5.15,-0.13,-6.74,8.48
26.90358805656433,7.18,-10.66,1.28,12.91
26.921504020690918,3.29,-4.83,8.95,10.68
26.923046112060547,-10.81,4.68,12.71,17.32
26.933505058288574,-6.18,-2.23,5.68,8.68
26.943181037902832,3.9,-5.57,-1.94,7.07
26.95319414138794,3.97,2.54,-7.44,8.8
26.97062397003174,-3.0,0.17,5.41,6.18
26.973100185394287,-5.57,2.42,3.96,7.25
26.982917070388794,-4.08,2.15,6.72,8.15
26.992969036102295,-2.16,-6.59,-5.22,8.67
27.002981185913086,-0.53,-8.16,8.36,11.69
27.02052402496338,0.62,-2.42,-7.73,8.12
27.02244210243225,0.1,5.83,0.42,5.84
27.032711029052734,-1.2,8.65,0.66,8.75
27.04259204864502,-5.46,7.84,-5.75,11.15
27.05277109146118,-7.35,2.56,-9.11,11.98
27.070651054382324,-4.62,-7.94,-3.3,9.76
27.072391033172607,1.26,-1.33,-4.61,4.96
27.082641124725342,3.37,1.48,6.28,7.27
27.09204411506653,-1.12,-0.94,14.77,14.84
27.10285997390747,-6.48,-0.85,17.07,18.27
27.12089490890503,-5.74,3.13,-4.63,8.01
27.122539043426514,1.87,-5.15,-3.21,6.35
27.132195949554443,6.91,-6.35,-7.11,11.77
27.14189910888672,3.15,2.02,-3.71,5.26
27.152274131774902,-6.32,-4.06,-0.06,7.51
27.16999101638794,-8.85,6.61,0.84,11.07
27.171682119369507,-3.51,7.12,-7.95,11.23
27.181808948516846,-0.53,-3.71,5.28,6.47
27.19177508354187,-1.69,0.96,4.72,5.1
27.201961040496826,-5.03,-7.57,4.89,10.32
27.219850063323975,-3.01,8.39,-2.29,9.2
27.22153615951538,-0.18,4.91,-8.61,9.91
27.231852054595947,-4.8,-7.81,-10.45,13.9
27.241488933563232,-4.7,-7.26,18.29,20.23
27.251749992370605,-9.98,2.56,8.15,13.13
27.269309997558594,-0.09,-3.13,11.14,11.57
27.271157026290894,4.06,-1.68,-5.7,7.19
27.28173017501831,-0.61,3.76,-5.73,6.88
27.290935039520264,-4.86,2.93,-10.48,11.91
27.301255226135254,1.58,-0.01,0.6,1.69
27.318437099456787,0.9,1.96,-5.92,6.3
27.321073055267334,-6.08,7.46,-2.16,9.86
27.33138418197632,-4.82,-8.02,15.82,18.38
27.341501235961914,0.8,0.06,-11.18,11.2
27.351177215576172,4.98,2.48,-2.86,6.25
27.368508100509644,-4.86,-0.72,6.52,8.16
27.37051510810852,-7.51,-2.8,17.41,19.16
27.38086223602295,0.22,0.58,5.56,5.59
27.39039897918701,4.13,8.28,-5.7,10.86
27.400854110717773,4.43,-0.88,-3.26,5.57
27.41811203956604,-2.56,-0.95,-16.01,16.24
27.420263051986694,-9.9,0.84,-5.26,11.24
27.4304780960083,-7.92,3.0,4.47,9.57
27.440258979797363,1.77,-3.96,7.01,8.24
27.450905084609985,1.33,-2.42,-0.16,2.76
27.468432903289795,-4.17,-0.95,13.04,13.72
27.47035789489746,-1.7,0.71,6.19,6.45
27.480149030685425,5.88,3.59,-4.85,8.42
27.49013900756836,4.35,-6.33,-7.31,10.6
27.50006103515625,-5.43,5.28,-8.73,11.55
27.518188953399658,-7.54,4.21,-7.59,11.49
27.520145893096924,-2.76,-7.71,-12.05,14.56
27.53043794631958,0.11,-5.94,3.24,6.76
27.53985905647278,-1.38,-0.1,-2.64,2.98
27.550044059753418,-0.57,-4.46,34.84,35.12
27.567488193511963,1.25,0.23,12.72,12.78
27.569499015808105,-1.75,13.96,-5.9,15.25
27.582536220550537,-3.94,-7.09,1.13,8.18
27.589272022247314,1.64,-4.95,-12.78,13.8
27.59999990463257,4.03,2.46,-12.49,13.35
27.616668224334717,-6.22,0.06,-15.84,17.01
27.619384050369263,-4.61,-8.98,18.33,20.92
27.63244605064392,-3.66,-9.44,9.3,13.74
27.639222145080566,2.08,10.35,-1.38,10.64
27.649482011795044,5.46,2.93,-2.54,6.69
27.666143894195557,5.19,1.08,-8.3,9.84
27.668959140777588,1.59,4.31,-9.02,10.12
27.68335509300232,-3.48,-4.66,4.25,7.2
27.688770055770874,-2.61,-1.59,10.73,11.15
27.699206113815308,5.06,-4.01,13.09,14.59
27.715861082077026,5.1,1.54,-2.02,5.69
27.718558073043823,-0.38,1.37,2.92,3.24
27.732335090637207,-4.34,-3.07,-6.1,8.09
27.738354206085205,-1.97,7.51,-6.88,10.37
27.749279022216797,1.31,3.16,-9.45,10.05
27.76658606529236,5.43,0.83,-3.57,6.55
27.768310070037842,4.46,-3.52,3.25,6.54
27.78252911567688,-2.19,0.8,2.04,3.09
27.78819513320923,-3.66,1.67,-4.69,6.17
27.79858708381653,2.06,0.32,-6.39,6.72
27.815945148468018,5.46,-3.41,11.0,12.74
27.817909240722656,-0.82,0.08,2.75,2.87
27.828266143798828,-3.18,-2.85,6.1,7.44
27.83827304840088,0.02,1.74,-7.03,7.24
27.848355054855347,1.87,-0.63,-2.73,3.36
27.865371227264404,0.46,-6.78,1.31,6.92
27.86779022216797,-1.65,-6.42,9.19,11.33
27.878331184387207,-0.8,-1.47,-0.44,1.73
27.887709140777588,2.32,9.68,-6.44,11.85
27.89845895767212,2.9,7.21,-13.9,15.92
27.915544033050537,2.73,-11.27,-2.87,11.94
27.917480945587158,-1.31,-0.17,-5.93,6.07
27.927467107772827,-2.25,2.69,2.9,4.55
27.9377121925354,0.56,-0.05,11.6,11.61
27.947842121124268,3.27,-5.55,10.41,12.24
27.965042114257812,0.24,1.45,-6.13,6.3
27.967217922210693,-2.57,4.4,-1.51,5.31
27.97738003730774,0.76,-8.08,6.13,10.17
27.987378120422363,5.57,0.46,3.89,6.8
27.99744701385498,0.94,1.85,3.05,3.68
28.014507055282593,-5.34,7.88,-6.43,11.48
28.016929149627686,-3.15,6.19,-5.99,9.17
28.027470111846924,1.9,-0.5,-6.8,7.07
28.037073135375977,2.03,-1.16,0.49,2.38
28.047255992889404,1.08,-1.57,6.84,7.1
28.064582109451294,2.15,0.66,0.74,2.36
28.066686153411865,2.02,1.93,4.75,5.51
28.076792240142822,-0.63,-1.85,5.24,5.59
28.086560010910034,-2.31,1.12,-0.02,2.56
28.09697389602661,-1.2,-0.03,-5.18,5.31
28.113953113555908,0.54,7.97,-9.83,12.66
28.1166410446167,1.11,5.98,-1.49,6.26
28.126585006713867,-0.44,-3.49,5.15,6.23
28.136949062347412,-2.57,2.6,3.46,5.03
28.14674997329712,-0.57,-1.3,4.57,4.78
28.163832187652588,2.0,0.47,5.53,5.89
28.16607093811035,-0.85,-0.88,-3.0,3.23
28.17614221572876,-3.62,2.02,-6.14,7.4
28.185998916625977,-0.83,-3.07,4.39,5.42
28.19644808769226,3.8,4.54,-5.48,8.06
28.213669061660767,0.84,6.2,0.1,6.25
28.21577024459839,-2.56,1.59,3.52,4.63
28.226025104522705,-2.28,-0.85,-4.53,5.14
28.235987186431885,1.28,1.04,-8.86,9.01
28.246871948242188,0.44,-7.37,-8.32,11.12
28.26387596130371,-1.98,-6.8,1.19,7.18
28.265830039978027,-3.16,0.43,12.3,12.7
28.275415897369385,-0.88,3.88,14.22,14.76
28.28591823577881,-0.23,4.94,0.62,4.98
28.29570722579956,-2.02,11.63,-16.7,20.45
28.313103199005127,-3.7,-8.15,-11.73,14.75
28.31523895263672,1.59,-15.54,-2.35,15.79
28.32520818710327,3.28,-4.13,0.22,5.27
28.33556604385376,-1.7,8.66,7.2,11.38
28.346107959747314,-4.34,11.43,5.61,13.45
28.363378047943115,0.77,-3.75,-2.76,4.71
28.365138053894043,4.22,-6.69,-11.59,14.03
28.375439167022705,1.89,4.13,-7.66,8.9
28.385250091552734,-0.75,12.53,-1.12,12.6
28.39558696746826,0.95,-4.13,6.07,7.4
28.413161039352417,1.69,-4.75,-0.93,5.12
28.41472601890564,1.39,-4.84,-2.01,5.42
28.425025939941406,1.7,-7.96,-1.05,8.2
28.4349422454834,2.65,-0.46,3.4,4.33
28.444889068603516,2.63,-5.01,11.11,12.46
28.461792945861816,0.33,6.55,-5.24,8.39
28.464477062225342,-2.4,2.48,-11.19,11.71
28.47427201271057,-1.19,-12.13,1.15,12.24
28.48473310470581,3.06,-5.45,10.56,12.27
28.49458599090576,3.44,4.43,9.98,11.44
28.512187957763672,-0.69,6.28,2.36,6.74
28.514144897460938,-1.23,6.56,-5.8,8.84
28.524775981903076,1.18,0.61,-1.22,1.8
28.53445291519165,2.77,2.9,-2.04,4.49
28.544299125671387,2.75,-1.54,6.66,7.36
28.56151509284973,1.21,6.17,-0.38,6.29
28.56396722793579,-0.43,6.23,-5.39,8.24
28.574138164520264,-1.49,-7.38,-8.62,11.44
28.583909034729004,-2.83,-6.32,-8.09,10.64
28.59398603439331,-0.9,8.63,5.43,10.23
28.611492156982422,1.54,0.53,10.25,10.37
28.61384391784668,0.74,3.39,9.55,10.16
28.62349510192871,-1.63,5.69,-5.32,7.95
28.63420009613037,-1.02,0.61,-5.21,5.34
28.643741130828857,-0.45,-4.63,-0.15,4.65
28.660813093185425,-0.32,-1.36,1.82,2.29
28.663366079330444,0.88,3.84,1.31,4.15
28.673130989074707,0.56,2.75,-7.69,8.18
28.683362007141113,-2.93,6.06,-8.55,10.88
28.693406105041504,-5.59,-0.72,-1.91,5.95
28.71030306816101,-2.25,-0.91,10.03,10.31
28.713073015213013,3.03,-0.69,-4.03,5.08
28.723151206970215,2.18,-1.98,11.63,11.99
28.733350038528442,-2.64,1.98,4.6,5.66
28.743441104888916,-3.1,3.2,5.45,7.03
28.760344982147217,0.56,-5.07,1.1,5.21
28.763110160827637,-0.74,3.24,-0.19,3.32
28.77258610725403,-4.85,4.06,2.7,6.87
28.783292055130005,-2.02,-0.71,3.9,4.44
28.792818069458008,2.48,0.79,-3.69,4.51
28.809574127197266,-0.68,0.49,-7.76,7.8
28.812445163726807,-0.73,-9.52,11.27,14.77
28.822399139404297,-0.61,2.5,-6.96,7.42
28.832798957824707,0.59,3.29,10.91,11.41
28.842565059661865,0.63,6.03,-7.82,9.89
28.85942316055298,1.19,5.2,-3.86,6.58
28.862303018569946,2.51,2.19,-6.3,7.12
28.872660160064697,2.94,-1.56,-2.13,3.95
28.882646083831787,1.24,-3.53,-0.21,3.74
28.89252805709839,0.42,-3.15,5.07,5.98
28.90947389602661,0.32,-7.87,0.1,7.87
28.911885023117065,-0.53,9.54,0.16,9.55
28.92232322692871,1.77,-6.03,3.29,7.09
28.932270050048828,0.99,-5.55,0.14,5.63
28.94208812713623,-3.77,1.86,3.11,5.22
28.95839023590088,-2.73,6.65,-8.5,11.13
28.96208906173706,2.85,-6.68,2.49,7.67
28.971513032913208,7.03,-6.58,-10.74,14.42
28.981882095336914,1.21,3.12,-8.94,9.54
28.991814136505127,-2.83,-10.65,42.64,44.04
29.009181022644043,-7.22,5.54,-2.4,9.41
29.01134490966797,-0.28,12.56,-9.25,15.6
29.021693229675293,2.25,-5.68,-28.14,28.79
29.03169012069702,2.47,-2.9,-17.61,18.01
29.041275024414062,2.29,-0.47,-6.45,6.86
29.057882070541382,0.0,-5.85,-14.66,15.78
29.06128692626953,2.2,-8.76,51.67,52.45
29.071688175201416,0.51,8.41,24.11,25.53
29.081017017364502,-1.6,3.49,-13.27,13.81
29.09105396270752,-0.2,-4.89,-39.5,39.8
29.107911109924316,3.48,13.67,-22.17,26.27
29.111207962036133,5.19,-10.97,-14.17,18.65
29.120763063430786,6.92,-7.15,21.96,24.1
29.130975008010864,-1.59,7.78,21.34,22.76
29.14064311981201,-2.39,-14.6,18.38,23.59
29.157904148101807,-1.79,3.92,-11.17,11.97
29.160730123519897,2.25,7.99,-13.87,16.16
29.171195030212402,5.66,-11.95,-3.69,13.72
29.18076205253601,3.91,2.22,-1.15,4.64
29.190714120864868,0.33,-0.78,15.72,15.74
29.207876205444336,-1.5,-5.57,2.28,6.2
29.210309982299805,-1.4,7.96,2.35,8.41
29.22056007385254,2.66,-5.26,1.23,6.02
29.23031997680664,3.72,-1.17,-12.31,12.91
29.240797996520996,-0.45,3.56,-8.18,8.93
29.257684230804443,-3.02,2.39,-10.09,10.8
29.260390043258667,-0.35,-3.19,2.48,4.05
29.26993417739868,3.42,-6.16,14.26,15.9
29.280797958374023,2.52,2.49,8.95,9.62
29.290147066116333,-0.46,1.6,0.6,1.76
29.307151079177856,-0.36,1.15,-9.22,9.29
29.309860229492188,1.7,0.82,-11.44,11.59
29.31989312171936,2.51,6.27,-11.13,13.01
